time,seconds_elapsed_x,accel_z,accel_y,accel_x,seconds_elapsed_y,gyro_z,gyro_y,gyro_x,accel_x_smooth,accel_y_smooth,accel_z_smooth,gyro_x_smooth,gyro_y_smooth,gyro_z_smooth
1767621245480865500,0.128865478515625,0.0312395095825195,-0.000783571973443,0.0004453882575035,0.10909912109375,0.0018325957935303,0.0012217304902151,0.0018325957935303,,,,,,
1767621245661370600,0.30937060546875,0.0409040451049804,-0.005571611225605,0.0111466497182846,0.3096630859375,0.0012217304902151,-0.0018325957935303,0.0012217304902151,,,,,,
1767621245721555000,0.369554931640625,0.0360002517700195,0.0127623844891786,0.010828198865056,0.3497861328125,-0.0006108652451075,0.0024434609804302,0.0030543261673301,-0.00046551264822482024,-0.00645153075456618,0.03462829589843745,0.00232128791976716,0.00024434608640149994,0.0006108652567491
1767621245902069500,0.550069580078125,0.0241146087646484,-0.0147256404161453,-0.0125613212585449,0.550361328125,0.0012217304902151,0.0,0.0030543261673301,-0.00728592686355112,-0.00929444320499896,0.03703823089599606,0.0019547687610611,0.00024434608640149994,0.00048869219608606
1767621246022424800,0.6704248046875,0.0408830642700195,-0.0239392146468162,-0.0121864788234233,0.670717041015625,-0.0006108652451075,-0.0006108652451075,0.0024434609804302,-0.012834676727652521,-0.0076249297708273,0.03464374542236325,0.0021991148591041197,0.0009773844038136199,1.9992688060632702e-17
1767621246142755000,0.790755126953125,0.0432891845703125,-0.0149981342256069,-0.033656682819128,0.79104736328125,0.0012217304902151,0.0012217304902151,0.0,-0.02158441916108126,-0.010699521005153641,0.03179435729980466,0.00207694182172414,0.00048869220772758,1.9992688060632702e-17
1767621246223001000,0.8710009765625,0.0289316177368164,0.0027759559452533,-0.0165970996022224,0.87129345703125,-0.0012217304902151,0.0018325957935303,0.0024434609804302,-0.0215028636157512,-0.005464791506528859,0.03276252746582028,0.0018325957469641798,0.00061086525674908,-0.0004886921960860199
1767621246263123500,0.91112353515625,0.0217533111572265,-0.0026105716824531,-0.0329205133020877,0.911416015625,-0.0006108652451075,0.0,0.0024434609804302,-0.01764134913682934,0.0010620899498462403,0.0298986434936523,0.00146607659989964,0.00073303830577058,-0.0001221730490215
1767621246383493000,1.0314931640625,0.0289554595947265,0.0114480070769786,-0.0121535435318946,1.031784912109375,-0.0012217304902151,0.0006108652451075,0.0018325957935303,-0.01183705776929852,0.006355414539575541,0.027034378051757756,0.00195476879598568,0.00073303830577058,-0.0004886921960860199
1767621246403552800,1.051552734375,0.0265636444091796,0.0086951926350593,0.007121093571186,1.051890380859375,0.0012217304902151,0.0,0.0006108652451075,-0.00831940248608588,0.00907461419701574,0.02608699798583978,0.00219911491731176,0.00073303830577058,-0.0004886921960860199
1767621246503867100,1.1518671875,0.0289678573608398,0.0114684887230396,-0.0046352259814739,1.15215869140625,-0.0006108652451075,0.0012217304902151,0.0024434609804302,1.9687414169299727e-05,0.00499365627765654,0.026098251342773382,0.00219911491731176,0.0008552113547920799,-0.0004886921960860199
1767621246624230100,1.272230224609375,0.0241947174072265,0.0163719542324543,0.0009911768138408,1.272522216796875,-0.0012217304902151,0.0018325957935303,0.0036651915870606,0.00086994692683218,2.655833959579988e-05,0.02467155456542964,0.0023212879546917397,0.00122173050185662,-0.0006108652567490601
1767621246664354800,1.312354736328125,0.0218095779418945,-0.0230153612792491,0.0087749361991882,1.31264697265625,-0.0006108652451075,0.0006108652451075,0.0024434609804302,-0.0031767576932907,-0.00364794582128522,0.025647163391113236,0.00293215322308236,0.00134390355087812,-0.0006108652567490601
1767621246784713700,1.432713623046875,0.0218219757080078,-0.0133874826133251,-0.0079022459685802,1.433005615234375,-0.0018325957935303,0.0024434609804302,0.0024434609804302,-0.00198607742786408,-0.01133942306041714,0.02470607757568356,0.00232128797797482,0.0008552113547920799,-0.00073303830577058
1767621247125711600,1.773711669921875,0.0314416885375976,-0.0096773281693458,-0.0131124295294284,1.774048583984375,0.0012217304902151,0.0006108652451075,0.0036651915870606,-0.00204101130366326,-0.019641791284084283,0.02519855499267576,0.0017104227095842,0.00048869219608602,-0.00024434610968454
1767621247145776600,1.793776611328125,0.0242624282836914,-0.02698889747262,0.0013181753456592,1.794068359375,-0.0012217304902151,-0.0012217304902151,-0.0006108652451075,-0.0051408939063549,-0.018714127689599958,0.02521076202392576,0.00146607661154118,0.0008552113431505599,0.0004886921728029799
1767621247226021000,1.874021240234375,0.0266571044921875,-0.0251398868858814,0.0007165074348449,1.874313232421875,0.0012217304902151,0.0,0.0006108652451075,-0.00654033347964286,-0.01802882850170132,0.02521781921386716,0.00073303831741212,0.0001221730490215,0.00085521133150904
1767621247266149000,1.914149169921875,0.0218706130981445,-0.0183770433068275,-0.00672447681427,1.91444140625,0.0030543261673301,0.0024434609804302,0.0012217304902151,-0.005598849058151239,-0.0187830604612827,0.02281990051269528,-0.00048869219608604,-0.0001221730490215,0.00097738439217208
1767621247506866700,2.15486669921875,0.0218572616577148,-0.0099609866738319,-0.01489944383502,2.15515869140625,0.0,-0.0012217304902151,-0.0012217304902151,-0.004248555004596699,-0.014435794949531521,0.02233524322509762,-0.00036651914706453995,-0.00036651914706452,0.00146607658825812
1767621247627238400,2.27523828125,0.0194520950317382,-0.0134484879672527,-0.0084050074219703,2.2755302734375,0.0018325957935303,-0.0006108652451075,-0.0024434609804302,-0.00776396170258518,-0.009464772790670359,0.02089138031005854,-0.0008552113547921,-0.00073303830577058,0.00085521133150904
1767621247707485200,2.355485107421875,0.0218391418457031,-0.0052525699138641,0.0080696456134319,2.355777099609375,0.0012217304902151,-0.0024434609804302,0.0,-0.00521514713764188,-0.0100180402398109,0.020403099060058542,-0.00122173050185662,-0.0009773844038135997,0.0
1767621247747604200,2.395604248046875,0.0194377899169921,-0.0002847760915756,-0.0168605260550975,2.39589599609375,-0.0018325957935303,-0.0018325957935303,-0.0018325957935303,-0.0036657966673374004,-0.011917960643768261,0.019914436340331982,-0.0009773844038136,-0.00061086525674908,-0.00036651915870606
1767621247847906000,2.495906005859375,0.0194292068481445,-0.0211433805525302,0.0060195960104465,2.496243408203125,-0.0012217304902151,0.0012217304902151,-0.0006108652451075,-0.0024427294731140005,-0.009708794206380779,0.02086429595947262,-0.00036651915870606,-0.00036651915870608,-0.00073303831741212
1767621247988328200,2.636328125,0.019413948059082,-0.0194605886936187,-0.0071526914834976,2.636620361328125,-0.0018325957935303,0.0006108652451075,0.0,-0.00312668532133102,-0.012891477346420219,0.02181491851806636,-0.00048869220772756,0.00012217303737995996,-0.0013439035741612
1767621248028447200,2.676447265625,0.0242013931274414,-0.0024026557803153,-0.0022896714508533,2.676739013671875,0.0,0.0006108652451075,0.0006108652451075,0.00020898208022117966,-0.01937437206506722,0.02420291900634762,0.00036651914706453995,0.0006108652451075199,-0.00146607661154118
1767621248108696300,2.7566962890625,0.0265922546386718,-0.0211659856140613,0.0046498663723468,2.75698828125,-0.0018325957935303,0.0,-0.0006108652451075,0.0012353673577308595,-0.01785852238535874,0.026113128662109342,0.0008552113547921,0.000244346098043,-0.00122173051349816
1767621248148824800,2.796824951171875,0.0313777923583984,-0.0326992496848106,-0.0001821890473365,2.79711669921875,-0.0024434609804302,0.0006108652451075,0.0024434609804302,0.0015132367610931397,-0.01624670028686516,0.026590156555175735,0.00048869219608604,0.00036651914706452,-0.00122173051349816
1767621248188951000,2.836950927734375,0.0289802551269531,-0.0135641321539878,0.0111515223979949,2.837243408203125,0.0,-0.0006108652451075,0.0018325957935303,0.0018202953040599794,-0.01890936568379396,0.02706699371337886,-0.0001221730490215,0.0,-0.00109955746447666
1767621248209006000,2.857006103515625,0.021799087524414,-0.0114014782011508,-0.0057633444666862,2.85734326171875,-0.0018325957935303,0.0012217304902151,-0.0018325957935303,0.0025352366268634797,-0.01195586547255512,0.027543449401855418,-0.00024434609804302,-0.00048869219608604,-0.00109955746447666
1767621248229071600,2.877071533203125,0.026585578918457,-0.0157159827649593,-0.0007543787360191,2.877363525390625,0.0006108652451075,-0.0012217304902151,-0.0024434609804302,0.004599857330322239,-0.0045627608895301595,0.028019523620605426,-0.00073303829412906,-0.00061086524510754,-0.00061086526839062
1767621248269192400,2.9171923828125,0.0289745330810546,0.0136015154421329,0.0082245729863643,2.917484619140625,-0.0018325957935303,-0.0024434609804302,-0.0012217304902151,0.0015250034630298597,-0.00620228461921214,0.026580810546874944,-0.00134390355087814,-0.00048869219608604,-0.00097738442709668
1767621248289255400,2.93725537109375,0.0337581634521484,0.0042662732303142,0.0101409144699573,2.93759228515625,0.0,0.0,0.0,0.00221631675958634,-0.00820934548974038,0.027535057067871037,-0.00109955744119358,-0.0008552113431505599,-0.0007330383174121201
1767621248329377800,2.977377685546875,0.0217866897583007,-0.0217617508023977,-0.004222746938467,2.957614013671875,-0.0018325957935303,0.0,-0.0012217304902151,0.0009004548192024398,-0.005953220278024679,0.027052688598632763,-0.0008552113431505601,-0.0010995574411935799,-0.00097738441545512
1767621248349444400,2.9974443359375,0.0265703201293945,-0.021436782553792,-0.0023067779839038,2.997736083984375,-0.0006108652451075,-0.0006108652451075,-0.0006108652451075,0.00044556111097337965,-0.01042217090725898,0.025612258911132762,-0.00012217304902149996,-0.00061086524510754,-0.0006108652567490601
1767621248389558800,3.037558837890625,0.0241737365722656,-0.0044353567063808,-0.0073336884379386,3.037849853515625,-0.0006108652451075,-0.0024434609804302,-0.0012217304902151,-0.00325485542416568,-0.01548262722790238,0.02321548461914058,0.00012217304902152,-0.00036651914706452,-0.0008552113547920801
1767621248429672000,3.077671875,0.0217723846435546,-0.0087432377040386,0.005950104445219,3.077969482421875,0.0,0.0,0.0024434609804302,-0.0059376068413257,-0.013927979022264439,0.025128936767578082,0.00024434609804304,-0.00024434609804302004,-0.0004886921960860199
1767621248469777000,3.11777685546875,0.0217742919921875,-0.0210360083729028,-0.008361168205738,3.11806396484375,-0.0012217304902151,0.0012217304902151,0.0012217304902151,-0.00561877712607378,-0.01191595233976836,0.02369117736816402,-1.164152003962915e-11,-0.00012217304902152002,1.164154003231721e-11
1767621248489831700,3.137831787109375,0.0313539505004882,-0.013988509774208,-0.0176365040242671,3.138162353515625,0.0,0.0006108652451075,-0.0006108652451075,-0.004379811137914601,-0.013188223913311897,0.02368946075439448,-0.00024434610968454004,0.0004886921960860199,0.0004886922193691001
1767621248509890000,3.15789013671875,0.0193815231323242,-0.0113766491413116,-0.0007126294076442,3.15817724609375,0.0018325957935303,0.0,-0.0018325957935303,-0.0057019114494323,-0.014262504503130841,0.02416934967041012,1.1641540075685297e-11,0.0004886921960860199,0.00036651917034760006
1767621248550006500,3.198006591796875,0.0241651535034179,-0.0107967145740985,-0.0011388584971427,3.198298095703125,0.0018325957935303,0.0006108652451075,-0.0024434609804302,-0.00370627790689464,-0.0116090334951877,0.027043914794921818,-0.00012217303737998,0.00012217304902149996,0.00061086526839062
1767621248670355200,3.318355224609375,0.0241718292236328,-0.0141146406531333,-0.0006603971123695,3.31864697265625,-0.0006108652451075,0.0,0.0036651915870606,-0.00131300613284108,-0.011909484863281198,0.025130081176757756,-0.0002443460864015,0.00024434609804301993,0.0003665191703476
1767621248710492400,3.358492431640625,0.036147117614746,-0.0077686533331871,0.0016169995069503,3.358783935546875,0.0,-0.0006108652451075,0.0006108652451075,-0.00270704850554464,-0.01267139017581934,0.026568412780761656,-0.00036651912378147996,0.00012217304902151994,0.00012217306066304002
1767621248750604500,3.3986044921875,0.0217847824096679,-0.0154907666146755,-0.0056701451539993,3.39889697265625,-0.0012217304902151,0.0012217304902151,-0.0012217304902151,-0.00021019652485847992,-0.014868708327412558,0.028964614868163995,0.00036651917034758,-0.00012217304902148004,-0.00012217304902152
1767621248790729200,3.438729248046875,0.0265731811523437,-0.0151861757040023,-0.007682841271162,3.43902099609375,0.0006108652451075,-0.0006108652451075,-0.0024434609804302,-0.00118381679058076,-0.014041920378804178,0.02848663330078118,-0.00012217304902152002,-0.00012217304902148004,0.00012217304902148001
1767621248810786800,3.458786865234375,0.0361461639404296,-0.0217833053320646,0.0113454014062881,3.4591240234375,0.0006108652451075,-0.0006108652451075,0.0012217304902151,-0.00447092205286024,-0.014100930467247919,0.02657184600830072,-0.00036651914706452,-0.00012217304902148004,0.00048869220772754
1767621248830853400,3.478853271484375,0.0217819213867187,-0.0099807009100914,-0.0055284984409809,3.47914501953125,0.0006108652451075,0.0,0.0012217304902151,-0.0001165483146905795,-0.01210007630288596,0.02896556854248042,-4.336808689942018e-20,-0.00036651914706450006,0.0006108652567490601
1767621248870967000,3.518967041015625,0.0265731811523437,-0.0080637037754058,-0.0148185268044471,3.519258544921875,0.0018325957935303,-0.0006108652451075,-0.0006108652451075,-0.0006472539156675193,-0.010636733844876239,0.03088054656982418,0.0006108652451075399,-0.0006108652567490601,0.00024434610968454004
1767621248911145700,3.559145751953125,0.0337533950805664,-0.0054864957928657,0.016101723536849,3.5594375,-0.0006108652451075,0.0,0.0006108652451075,-0.002658506110310539,-0.008821055293083139,0.02992305755615232,0.0004886921960860199,-0.0007330383057705802,0.00036651915870606
1767621248951253000,3.5992529296875,0.0361480712890625,-0.0078694634139537,-0.0103363692760467,3.59954443359375,-0.0012217304902151,-0.0018325957935303,0.0006108652451075,-0.00420841909945008,-0.01080567762255662,0.032795715332031225,0.0001221730490215,-0.0004886922077275601,-0.00024434608640147993
1767621248971308300,3.619308349609375,0.0313587188720703,-0.0127049125730991,0.001289140433073,3.619645263671875,0.0012217304902151,-0.0012217304902151,0.0006108652451075,-0.002406981214880919,-0.012596565485000561,0.03231563568115232,0.0003665191470645,-0.0004886922077275601,-0.0013439035625196602
1767621248991373300,3.639373291015625,0.0361452102661132,-0.0199038125574588,-0.0132780633866786,3.6396650390625,-0.0024434609804302,0.0012217304902151,-0.0006108652451075,-0.0024729076772927994,-0.01546712964773174,0.02992134094238278,0.00073303829412904,-0.0002443461096845401,-0.00158824967220422
1767621249031486700,3.67948681640625,0.0241727828979492,-0.0170181430876255,-0.0058113373816013,3.679778564453125,-0.0036651915870606,-0.0006108652451075,0.0006108652451075,-5.256049335001967e-05,-0.020285115391015983,0.027048683166503863,0.00073303829412904,-0.0002443461096845401,-0.0012217305251397003
1767621249071604500,3.7196044921875,0.0217819213867187,-0.0198393166065216,0.0157720912247896,3.71989697265625,-0.0018325957935303,0.0012217304902151,0.0024434609804302,-0.0005106452852487196,-0.01801431998610494,0.027527999877929636,0.00061086524510754,-0.0002443461096845401,-0.0012217305251397003
1767621249111722500,3.759722412109375,0.0217847824096679,-0.0319593921303749,0.0017653666436672,3.760014404296875,0.0006108652451075,-0.0018325957935303,0.0006108652451075,0.0033011663705110605,-0.01808464229106902,0.028964805603027298,0.00073303829412904,-0.0004886922077275601,-0.00097738442709668
1767621249151886300,3.79988623046875,0.0337553024291992,-0.0013509355485439,-0.0010012835264205,3.800177734375,0.0012217304902151,-0.0012217304902151,0.0,0.0022695843130350205,-0.01917765177786348,0.031359481811523385,0.00073303829412904,-0.0004886922077275601,-0.00024434610968456004
1767621249191990000,3.839989990234375,0.0433292388916015,-0.0202554240822792,0.0057809948921203,3.8402822265625,-0.0012217304902151,0.0,0.0,-0.0035728000104427197,-0.01873676441609856,0.03327465057373042,0.0004886921960860199,-0.00036651914706452006,0.0
1767621249212043000,3.86004296875,0.0361461639404296,-0.0224831905215978,-0.0109692476689815,3.860380126953125,0.0,-0.0006108652451075,0.0006108652451075,-0.00320791080594062,-0.011076213046908359,0.033752822875976515,0.0004886921960860199,-0.00012217303737996002,-0.00048869220772756
1767621249232102100,3.88010205078125,0.0313577651977539,-0.017634879797697,-0.0134398303925991,3.88039404296875,-0.0006108652451075,0.0018325957935303,0.0012217304902151,-0.0023137874901295,-0.01528043299913404,0.031357955932617136,0.000244346098043,0.00012217306066305997,-0.0008552113547920799
1767621249272220400,3.920220458984375,0.0241756439208984,0.0063433647155761,0.0035898126661777,3.920511962890625,-0.0018325957935303,-0.0006108652451075,0.0006108652451075,-0.00230005234479906,-0.01276264786720272,0.0280055999755859,0.0006108652567490601,0.00024434610968456,-0.00073303830577056
1767621249292271900,3.94027197265625,0.0217809677124023,-0.0223720353096723,0.0034693330526351,3.94060888671875,-0.0006108652451075,0.0,-0.0012217304902151,-0.0003502145409584194,-0.01128905154764648,0.026090240478515596,0.00036651915870606006,0.00024434610968456,-0.0003665191470645
1767621249312332000,3.96033203125,0.0265674591064453,-0.0076664984226226,0.0058496706187725,3.96062353515625,-0.0006108652451075,0.0006108652451075,0.0018325957935303,0.0006348744034767005,-0.01074287183582778,0.028005409240722617,-0.00036651913542299995,0.00012217304902151994,-0.0001221730490215
1767621249332384500,3.980384521484375,0.0265693664550781,-0.0151152089238166,-0.0012200586497783,3.9807216796875,0.0018325957935303,-0.0006108652451075,-0.0006108652451075,0.0001778498291969205,-0.01296922005712978,0.029919815063476518,0.00012217304902152008,0.00036651914706451995,-0.00024434608640147993
1767621249352447200,4.000447265625,0.040933609008789,-0.0149039812386035,-0.0085143856704235,4.000739501953125,0.0006108652451075,0.0012217304902151,-0.0024434609804302,-0.0007086984813213196,-0.01147317141294472,0.030398559570312463,0.00024434609804304004,-1.1641540075685297e-11,0.00036651915870606
1767621249372499200,4.020499267578125,0.0337476730346679,-0.0047883763909339,0.0013046897947788,4.0208369140625,-0.0024434609804302,0.0006108652451075,0.0030543261673301,-0.0026661336421966195,-0.0109665319323539,0.031834602355956976,0.0006108652567491,-0.00012217306066304007,0.0001221730490215
1767621249392562000,4.04056201171875,0.024174690246582,-0.014891792088747,-0.0009634084999561,4.04085400390625,0.0024434609804302,-0.0018325957935303,-0.0006108652451075,-0.0017421223223209193,-0.01093558520078652,0.03518600463867182,0.0007330383057706001,-0.00024434610968456004,-0.00024434610968456004
1767621249432678400,4.080678466796875,0.0337476730346679,-0.0051333010196685,-0.003937505185604,4.080970458984375,-0.0018325957935303,0.0,0.0036651915870606,-0.001835680007934539,-0.0105068072676658,0.03279132843017572,0.00134390355087814,-0.00061086525674908,-0.0008552113547921
1767621249472795000,4.120794921875,0.0433263778686523,-0.0149604752659797,0.0033999979496002,4.121086669921875,0.0,-0.0012217304902151,0.0,-0.003426040709018659,-0.014965190738439499,0.03327045440673822,0.00085521136643362,-0.0008552113547920799,-0.0008552113547921
1767621249512905000,4.160905029296875,0.0289602279663085,-0.0127600915729999,-0.0089821740984916,4.16120068359375,-0.0024434609804302,-0.0006108652451075,0.0006108652451075,-0.0017340466380118991,-0.012593538314104018,0.03422718048095696,0.00122173051349814,-0.00024434609804300004,-0.0012217305018566399
1767621249532958200,4.180958251953125,0.0361433029174804,-0.0270802937448024,-0.0066471137106418,4.16120068359375,-0.0024434609804302,-0.0006108652451075,0.0006108652451075,-0.001361237466335279,-0.01464805677533144,0.031833267211914,0.0008552113547920799,-0.00012217304902150005,-0.0009773843921720797
1767621249553017300,4.201017333984375,0.0289583206176757,-0.0030335299670696,0.0074965618550777,4.2013046875,0.0006108652451075,0.0012217304902151,0.0012217304902151,-0.003385210037231419,-0.01574304178357118,0.03039703369140618,0.0006108652567490601,-0.00012217304902150005,-0.0009773843921720797
1767621249593124900,4.241124755859375,0.0217781066894531,-0.0154058933258056,-0.0020734593272209,4.241411865234375,-0.0006108652451075,0.0006108652451075,0.0018325957935303,-0.004886145889759039,-0.016727916151285098,0.03135452270507806,0.00085521136643362,-4.336808689942018e-20,-0.00036651914706453995
1767621249613171000,4.2611708984375,0.0361452102661132,-0.0204354003071784,-0.0067198649048805,4.261508056640625,0.0,-0.0012217304902151,-0.0012217304902151,-0.004830712825059859,-0.012510995566844879,0.02848224639892572,0.0009773844154551399,0.00036651914706451995,0.00036651914706452
1767621249633232600,4.281232666015625,0.0337476730346679,-0.0176844634115695,-0.0164868533611297,4.2815244140625,0.0006108652451075,0.0,0.0018325957935303,-0.007071388512849758,-0.014567770808935102,0.030398941040039002,0.0009773844154551399,0.00036651914706451995,0.00048869219608604
1767621249673345800,4.321345703125,0.0217819213867187,-0.0059956908226013,-0.0063699483871459,4.321637939453125,0.0012217304902151,0.0012217304902151,0.0012217304902151,-0.007843261212110458,-0.017439030483365002,0.0303998947143554,0.0008552113547921,0.00012217304902151994,0.0008552113431505601
1767621249693403400,4.3414033203125,0.0385417938232421,-0.0133174061775207,-0.0037068165838718,4.321637939453125,0.0012217304902151,0.0012217304902151,0.0012217304902151,-0.009123664349317478,-0.01591761223971838,0.028484916687011662,0.00122173050185662,0.00036651914706453995,0.0008552113431505601
1767621249713472800,4.36147265625,0.0217828750610351,-0.0297621916979551,-0.0059328228235244,4.361764892578125,0.0012217304902151,-0.0006108652451075,0.0012217304902151,-0.005554553121328298,-0.012918908521532962,0.02800674438476558,0.00073303829412906,0.0004886921960860399,0.00097738439217208
1767621249753595400,4.401595458984375,0.0265703201293945,-0.0128283090889453,-0.0131218805909156,4.401887451171875,0.0,0.0,0.0006108652451075,-0.002954616397619219,-0.01086996160447594,0.02992229461669918,0.00061086524510754,0.00036651914706451995,0.0012217304902150997
1767621249833818000,4.481818115234375,0.0313568115234375,-0.0026909448206424,0.0013587027788162,4.482109619140625,0.0012217304902151,0.0006108652451075,-0.0006108652451075,-0.0008477084338664988,-0.013638771697878799,0.028007316589355437,-0.00012217304902152,0.00024434609804299993,0.0008552113431505798
1767621249914044400,4.56204443359375,0.0313596725463867,0.0042490437626838,0.0066297352313995,4.562336669921875,0.0024434609804302,0.0006108652451075,0.0006108652451075,0.00025805011391640133,-0.009172879904508541,0.030401229858398417,0.0001221730490215,0.0006108652451075199,0.0006108652451075599
1767621249954162400,4.602162353515625,0.0289669036865234,-0.027161456644535,0.0068277232348918,4.602454833984375,-0.0006108652451075,0.0006108652451075,-0.0024434609804302,-0.0009787112474441584,-0.00865678191184994,0.031838417053222635,0.00024434609804302,0.0008552113431505399,0.00012217304902152008
1767621249994280700,4.64228076171875,0.03375244140625,-0.0074327327311038,-0.0004040300846099,4.642572021484375,0.0,0.0012217304902151,0.0024434609804302,-0.003618958592414839,-0.0121098957955837,0.0337553024291992,0.00024434609804302,0.0004886921960860199,-0.00012217304902149996
1767621250014334500,4.66233447265625,0.0337562561035156,-0.0102478191256523,-0.0193056873977184,4.66267138671875,-0.0024434609804302,0.0012217304902151,0.0012217304902151,-0.004907919466495498,-0.01695838719606394,0.03471393585205076,0.00024434609804302,0.0004886921960860199,-0.0010995574411935799
1767621250034399000,4.68239892578125,0.0409412384033203,-0.0199565142393112,-0.0118425339460372,4.68269091796875,0.0,-0.0012217304902151,-0.0006108652451075,-0.006635185331106139,-0.013631870597600881,0.034236335754394505,0.0012217304902150997,0.00036651914706451995,-0.00085521134315058
1767621250074521900,4.72252197265625,0.0361528396606445,-0.0199934132397174,0.0001849308609962,4.7228134765625,-0.0024434609804302,0.0006108652451075,0.0006108652451075,-0.005846228450536698,-0.01496238559484478,0.03423995971679684,0.00109955745283512,0.00024434609804299993,-0.00085521134315058
1767621250114619400,4.762619384765625,0.0265789031982421,-0.0105288736522197,-0.0018086060881614,4.762911376953125,0.0006108652451075,0.0,0.0024434609804302,-0.003424837440252279,-0.016895382106304122,0.034723854064941356,0.00109955745283512,0.00012217304902147996,-0.0006108652451075598
1767621250194848800,4.842848876953125,0.0337705612182617,-0.0140853077173233,0.0035407543182373,4.843140380859375,0.0,0.0006108652451075,0.0018325957935303,0.0008836470544338213,-0.0192847609519958,0.03281326293945308,0.0015882496605626802,0.000488692196086,-0.0012217304785735797
1767621250275083300,4.923083251953125,0.0361757278442382,-0.019912801682949,-0.0071987323462963,4.923374755859375,-0.0012217304902151,0.0006108652451075,0.0012217304902151,0.00042022094130518117,-0.01644069403409954,0.03233947753906245,0.0020769418450071997,0.0008552113431505399,-0.00097738438053056
1767621250295140600,4.943140625,0.0313882827758789,-0.0319034084677696,0.0096998885273933,4.94347802734375,-0.0030543261673301,0.0006108652451075,0.0018325957935303,0.0018882356584072012,-0.013723308593034719,0.03138771057128904,0.00171042269794266,0.0006108652451075199,-0.00146607658825812
1767621250315201800,4.963201904296875,0.0337839126586914,-0.0057730786502361,-0.002132199704647,4.96349365234375,-0.0012217304902151,0.0024434609804302,0.0030543261673301,0.0031816311180591418,-0.01609246246516702,0.0337858200073242,0.0013439035392366,0.00036651914706452,-0.00171042268630114
1767621250355321300,5.0033212890625,0.021820068359375,0.0030580535531044,0.0055314674973487,5.00361328125,-0.0018325957935303,-0.0012217304902151,0.0006108652451075,0.0036761783063411616,-0.013979239389300322,0.03522396087646484,0.0009773843921720802,0.0004886921960860399,-0.00146607658825812
1767621250395432200,5.04343212890625,0.0457611083984375,-0.0259310770779848,0.010007731616497,5.043724365234375,-0.0012217304902151,-0.0006108652451075,0.0,0.0017390586435794616,-0.00978122912347314,0.03522453308105468,0.0009773843921720802,0.0007330383057705999,-0.0009773844038136
1767621250435553500,5.083553466796875,0.0433664321899414,-0.0093466863036155,-0.0047259964048862,5.08384521484375,0.0,0.0012217304902151,-0.0006108652451075,0.0037163332104682414,-0.011321036145091019,0.03331012725830076,0.0009773843921720802,0.00036651915870605995,-0.0008552113547920799
1767621250475678500,5.123678466796875,0.0313911437988281,-0.0109133571386337,1.42902135848e-05,5.123969970703125,-0.0006108652451075,0.0018325957935303,0.0018325957935303,0.0022658348083495817,-0.015203395858406979,0.0361833572387695,0.0014660765766166001,0.00073303830577058,-0.0006108652451075199
1767621250515793400,5.16379345703125,0.0242118835449218,-0.0134721137583255,0.0077541731297969,5.16408544921875,-0.0006108652451075,0.0006108652451075,0.0030543261673301,0.0022600367665290616,-0.01130828410387034,0.034746551513671835,0.0008552113431505801,0.00073303830577058,-0.0003665191470644999
1767621250535850200,5.183850341796875,0.0361862182617187,-0.0163537450134754,-0.0017210245132446,5.16408544921875,-0.0006108652451075,0.0006108652451075,0.0030543261673301,0.005169142037630042,-0.012508700042962981,0.0357030868530273,0.0004886921960860402,1.1641519952892975e-11,-0.0001221730490214799
1767621250555912400,5.203912353515625,0.0385770797729492,-0.0064555183053016,0.0099787414073944,5.2042041015625,0.0,-0.0006108652451075,-0.0030543261673301,0.005112903565168362,-0.013281881064176498,0.03570175170898432,0.00012217303737998013,-0.00036651914706454,-0.00036651915870603995
1767621250575966500,5.223966552734375,0.0481491088867187,-0.0153487659990787,0.0098195299506187,5.22430322265625,0.0012217304902151,-0.0024434609804302,-0.0024434609804302,0.006322713941335661,-0.012958437204360898,0.0385717391967773,-0.0010995574295520599,-0.0009773843921720802,0.00036651912378148
1767621250596026000,5.244026123046875,0.0313844680786132,-0.0147792622447013,-0.0002669021487236,5.244321533203125,-0.0018325957935303,0.0,0.0,0.006861238181591002,-0.00853197872638698,0.03808746337890619,-0.0017104226630180797,-0.0013439035392365998,0.00085521133150904
1767621250636137700,5.2841376953125,0.0385618209838867,-0.0118548944592475,0.0138032250106334,5.2844248046875,0.0030543261673301,-0.0024434609804302,-0.0030543261673301,0.004581180959939942,-0.009030454605817759,0.03568897247314448,-0.0010995574295520599,-0.0013439035392365998,0.00085521133150904
1767621250676252700,5.324252685546875,0.0337648391723632,0.0057785473763942,0.0009715966880321,5.32453955078125,0.0018325957935303,-0.0012217304902151,0.0,0.002284525334835061,-0.00909083038568494,0.031854057312011665,-0.0003665191354229999,-0.00122173050185662,0.00048869218444452
1767621250716364500,5.364364501953125,0.0265846252441406,-0.0089478977024555,-0.0014215447008609,5.3646572265625,0.0,-0.0006108652451075,0.0,0.0019333332777023413,-0.007876435667276359,0.0323297500610351,-0.0004886921844444999,-0.00146607659989964,0.00085521134315058
1767621250756479700,5.404479736328125,0.0289745330810546,-0.0156506448984146,-0.0016637481749057,5.404772216796875,-0.0006108652451075,-0.0018325957935303,0.0012217304902151,-0.003671658039092979,-0.007697002589702599,0.030411911010742122,0.00036651914706454006,-0.00158824963727962,-0.0001221730490214999
1767621250776533000,5.424532958984375,0.0337629318237304,-0.0087072886526584,-0.0020228624343872,5.424869873046875,0.0,-0.0012217304902151,-0.0006108652451075,-0.0030294522643088987,-0.01392947956919668,0.03328361511230462,0.00012217304902152008,-0.00158824963727962,-0.0006108652567490599
1767621250796593200,5.44459326171875,0.0289726257324218,-0.0109577290713787,-0.0142217315733432,5.44488525390625,-0.0018325957935303,-0.0030543261673301,0.0012217304902151,-0.005740055441856359,-0.014686921238899198,0.03854827880859368,2.007942423443154e-17,-0.0018325957469641798,-0.00012217306066302
1767621250836707600,5.48470751953125,0.0481233596801757,-0.0253838375210762,0.0041826255619525,5.484999267578125,-0.0006108652451075,-0.0012217304902151,-0.0012217304902151,-0.0036870934069156585,-0.01604783646762368,0.03950405120849604,-0.00024434609804299993,-0.0012217304902151,-0.00061086524510754
1767621250876812300,5.524812255859375,0.0529079437255859,-0.0127351060509681,-0.0149745605885982,5.525104248046875,0.0024434609804302,-0.0018325957935303,-0.0006108652451075,-0.0029524706304073383,-0.02019872888922688,0.03662910461425776,-0.0001221730490214999,-0.0007330382941290601,-0.00122173047857356
1767621250916924400,5.56492431640625,0.0337533950805664,-0.022455221042037,0.0086010619997978,5.56521630859375,-0.0030543261673301,0.0012217304902151,0.0,0.0011525973677634816,-0.016655538976192458,0.03662719726562495,-0.0004886921960860199,-0.00012217306066304002,-0.0004886921611614401
1767621250936982000,5.58498193359375,0.019388198852539,-0.0294617507606744,0.0016502514481544,5.56521630859375,-0.0030543261673301,0.0012217304902151,0.0,-0.0017740316689014584,-0.014975871890783279,0.0327949523925781,-0.0003665191470644999,0.00012217303737997997,4.656612005715655e-11
1767621250957048000,5.605048095703125,0.0289630889892578,0.0067582204937934,0.0063036084175109,5.60533984375,0.0018325957935303,0.0,-0.0006108652451075,0.0014779597520827815,-0.014826527237892118,0.03087825775146482,-0.0004886921960860199,0.00061086524510754,-0.0004886921495199199
1767621250977105400,5.62510546875,0.0289621353149414,-0.0169855020940303,-0.0104505196213722,5.60533984375,0.0018325957935303,0.0,-0.0006108652451075,-0.001973918080329919,-0.01027367971837518,0.030397796630859335,-0.00012217303737995988,0.00024434609804302,0.00012217308394610007
1767621250997170400,5.64517041015625,0.0433244705200195,-0.0119883827865123,0.001285396516323,5.645462646484375,0.0,0.0006108652451075,-0.0012217304902151,-0.0012123785912990786,-0.009595181047916398,0.0351844787597656,-0.0002443460864014599,-0.00036651915870606,0.00073303831741212
1767621251037281000,5.685281005859375,0.031351089477539,0.0003090165555477,-0.0086583271622657,5.68557275390625,0.0,-0.0006108652451075,0.0018325957935303,-0.0028607860207557584,-0.01422665789723392,0.037098121643066376,-0.00012217303737995988,-0.0008552113547921,0.00036651915870606
1767621251077396200,5.725396240234375,0.0433216094970703,-0.0260692574083805,0.0054579488933086,5.7256884765625,0.0,-0.0018325957935303,-0.0006108652451075,-0.001290654391050318,-0.016445013508200598,0.03948993682861324,1.1641540119053383e-11,-0.00061086525674908,-0.00024434609804302
1767621251117512200,5.76551220703125,0.0385313034057617,-0.0163991637527942,-0.0019384287297725,5.76580419921875,0.0,-0.0024434609804302,0.0,-0.002986501157283738,-0.01911249719560142,0.03805141448974604,-0.0001221730490214999,-0.0009773844038135997,0.00012217306066304002
1767621251157628400,5.80562841796875,0.0409212112426757,-0.0280772801488637,-0.002599861472845,5.805920654296875,-0.0012217304902151,0.0012217304902151,0.0,-0.0032651737332343583,-0.019244983419775895,0.03948497772216792,-0.00073303830577058,-0.0010995574528351198,0.00012217306066304002
1767621251197742600,5.84574267578125,0.0361318588256835,-0.0253258012235164,-0.0071938373148441,5.846033447265625,0.0018325957935303,-0.0012217304902151,-0.0018325957935303,-0.0016210731118916975,-0.01545125879347318,0.036129570007324155,-0.0008552113547921,-0.00073303829412906,0.00036651915870606
1767621251237859300,5.885859375,0.0385189056396484,-0.0003534145653247,-0.0100516900420188,5.886151123046875,0.0,-0.0012217304902151,-0.0012217304902151,-0.000934034958481758,-0.01259690485894674,0.035647201538085885,-0.00061086525674908,-0.0003665191470645199,0.00024434610968456004
1767621251277975300,5.925975341796875,0.0265445709228515,-0.0071006342768669,0.0136784520000219,5.926267333984375,0.0012217304902151,0.0,-0.0012217304902151,-0.002989305928349478,-0.0074698813259600995,0.035644912719726515,-0.00061086525674908,-0.0004886921960860399,0.00024434610968456004
1767621251318084000,5.966083984375,0.0361194610595703,-0.002127394080162,0.0014967620372772,5.966376220703125,-0.0006108652451075,-0.0006108652451075,0.0012217304902151,-0.001719006523489938,-0.0014724157750606187,0.034685134887695285,-0.0003665191470645199,-0.0003665191470645199,-0.000244346098043
1767621251358188000,6.00618798828125,0.0409097671508789,-0.0024421624839305,-0.0128762163221836,6.006480224609375,-0.0012217304902151,0.0006108652451075,0.0,0.0018463220447301823,-0.004562640190124478,0.03516159057617184,-0.0006108652451075399,-0.0001221730490214999,-0.0001221730490215
1767621251398302700,6.046302734375,0.0313329696655273,0.004661526530981,-0.0008423402905464,6.046594482421875,-0.0006108652451075,-0.0006108652451075,-0.0006108652451075,-0.0018735140562057377,-0.003789628297090499,0.03755283355712888,-0.0006108652451075399,-0.0001221730490214999,-0.00036651914706452
1767621251478532400,6.126532470703125,0.0409011840820312,-0.015804536640644,0.0077749527990818,6.12682421875,0.0006108652451075,0.0,-0.0024434609804302,-0.002653979510068858,-0.005447883903980219,0.03802909851074217,-0.0009773843921720598,-0.0004886921960860399,-0.00048869219608604
1767621251518646300,6.166646240234375,0.0385007858276367,-0.003235574811697,-0.0049207285046577,6.1669384765625,0.0,0.0,-0.0012217304902151,-0.0020830035209655376,-0.005523228645324679,0.03754653930664058,-0.0007330382941290399,-0.0010995574411935799,-0.00036651914706452
1767621251558760700,6.2067607421875,0.0385007858276367,-0.0104186721146106,-0.0024055652320384,6.20705224609375,-0.0012217304902151,-0.0024434609804302,-0.0006108652451075,-0.004565667361020998,-0.007067172974348018,0.03993663787841792,-0.00036651914706451995,-0.0009773843921720797,-0.00061086525674908
1767621251598873600,6.24687353515625,0.038496971130371,-0.0028188861906528,-0.010021336376667,6.24716552734375,-0.0006108652451075,-0.0024434609804302,0.0012217304902151,-0.007741529494523938,-0.005068486928939779,0.03897724151611324,0.00036651914706454,-0.0010995574411935799,-0.00061086525674908
1767621251638976800,6.286976806640625,0.043283462524414,-0.0030581951141357,-0.0132556594908237,6.2872685546875,-0.0018325957935303,0.0,0.0012217304902151,-0.006000036001205399,-0.005120521783828679,0.0375402450561523,0.0006108652451075599,-0.0010995574411935799,-0.0004886922077275799
1767621251679086300,6.32708642578125,0.0361042022705078,-0.0058111064136028,-0.0081043578684329,6.3273818359375,0.0006108652451075,-0.0006108652451075,0.0012217304902151,-0.0048094876110553585,-0.0018444485962390595,0.03993396759033198,0.00073303829412906,-0.0006108652451075399,-0.00024434610968456004
1767621251719194400,6.3671943359375,0.031315803527832,-0.0034957490861415,0.003786738961935,6.367480712890625,0.0006108652451075,0.0,0.0,-0.0020957849919795977,-0.0015248537063598394,0.03897647857666012,0.00061086524510754,-0.00024434609804299993,-0.00036651915870608
1767621251759293200,6.407293212890625,0.0504693984985351,0.0059616938233375,0.0035471767187118,6.407579833984375,0.0,0.0,0.0,0.0007620938122272225,-0.0059696841984986995,0.038498306274414015,0.0008552113431505601,0.00024434609804304004,-1.9992688060632702e-17
1767621251779339500,6.427339599609375,0.0337095260620117,-0.0012209117412567,0.0035471767187118,6.427676025390625,-0.0012217304902151,-0.0006108652451075,0.0006108652451075,0.0018001705408096022,-0.005674357339739759,0.03993606567382808,0.0010995574411935799,0.00036651914706454006,-0.00012217304902152
1767621251799397400,6.4473974609375,0.0408926010131835,-0.02528234757483,0.0010337345302104,6.447689208984375,0.0,0.0024434609804302,0.0024434609804302,0.0038091786205768224,-0.009757093712687459,0.04233188629150386,0.00097738439217208,0.00024434609804304004,-0.00036651914706452
1767621251839507500,6.487507568359375,0.0432929992675781,-0.0043344721198081,-0.002913974225521,6.48779931640625,0.0,0.0,0.0024434609804302,0.0024890221655368616,-0.011865828558802558,0.03898143768310542,0.00134390355087814,0.0006108652567491001,-0.00024434609804302
1767621251859560400,6.507560546875,0.0432949066162109,-0.02390943095088,0.0138317793607711,6.50789794921875,-0.0006108652451075,-0.0006108652451075,-0.0006108652451075,-0.0016798049211501982,-0.01222698055207724,0.03850498199462886,0.0012217305018566399,0.0009773844038136199,0.00061086523346602
1767621251879622100,6.5276220703125,0.0337171554565429,-0.004581980407238,-0.003053605556488,6.5279140625,0.0006108652451075,0.0018325957935303,0.0018325957935303,-0.004813667386770218,-0.012073998898267699,0.037549781799316354,0.0007330383057706001,0.0007330383057706001,0.00122173046693204
1767621251919736000,6.567736083984375,0.0313272476196289,-0.0030266717076301,-0.0172969587147235,6.568028076171875,0.0030543261673301,0.0012217304902151,0.0,-0.004284590482711778,-0.009382449835538839,0.0365930557250976,0.0007330383057706001,0.0007330383057706001,0.00171042266301808
1767621251939789800,6.587789794921875,0.036116600036621,-0.0245174393057823,-0.0146355777978897,6.568028076171875,0.0030543261673301,0.0012217304902151,0.0,-0.005716423690319039,-0.004380726814270019,0.03467903137207026,0.0009773844038136,0.0004886921960860401,0.00146607655333352
1767621251959856600,6.607856689453125,0.0385093688964843,0.0091232731938362,-0.0002685897052288,6.6081484375,0.0024434609804302,0.0,0.0024434609804302,-0.006188803166151018,-0.00571053996682166,0.0346807479858398,0.00073303829412904,0.00012217303737998008,0.00134390350431202
1767621251999972900,6.647972900390625,0.0337247848510742,0.0010991841554641,0.0066726133227348,6.6482646484375,-0.0018325957935303,-0.0018325957935303,0.0006108652451075,-0.004213625192642198,-0.010280980914831159,0.038034057617187436,0.00036651913542298006,-0.0002443461096845399,0.0007330382708459999
1767621252040086000,6.6880859375,0.0337257385253906,-0.0112310461699962,-0.0054155029356479,6.688377685546875,0.0,0.0,0.0006108652451075,-0.002866756170988058,-0.005789111554622639,0.04042930603027338,0.00012217303737996005,-0.0006108652567490599,0.00036651913542299995
1767621252080197600,6.72819775390625,0.0480937957763671,-0.0258788764476776,-0.0074210688471794,6.728489501953125,0.0,-0.0006108652451075,-0.0018325957935303,-0.006802791357040377,-0.00940612107515332,0.04043025970458979,-0.0006108652567491,-0.0007330383057705599,0.00012217303737997997
1767621252120330500,6.76833056640625,0.0480928421020507,-0.0020580925047397,-0.007901232689619,6.7686220703125,0.0012217304902151,-0.0006108652451075,-0.0012217304902151,-0.007404634356498697,-0.012842745333909939,0.04090900421142574,-0.0004886922077275799,-0.00012217304902147988,0.00048869219608604
1767621252140389000,6.78838916015625,0.0385141372680664,-0.0089617744088172,-0.0199487656354904,6.7686220703125,0.0012217304902151,-0.0006108652451075,-0.0012217304902151,-0.005980765074491497,-0.011435114592313719,0.0423458099365234,-0.00012217306066303994,0.00024434610968458015,0.00061086524510754
1767621252160452600,6.80845263671875,0.0361185073852539,-0.016083937138319,0.0036633983254432,6.808744140625,0.0,0.0012217304902151,0.0012217304902151,-0.008382549881935118,-0.00670347586274142,0.04186725616455076,0.0002443460980430201,0.00024434610968458015,0.00024434608640147993
1767621252200567800,6.84856787109375,0.0409097671508789,-0.0041928924620151,0.0017038434743881,6.848859619140625,0.0006108652451075,0.0018325957935303,0.0024434609804302,-0.009736841917037959,-0.010067403316497761,0.038994598388671864,0.00061086524510754,0.0003665191587060801,-0.00012217306066304002
1767621252220623600,6.86862353515625,0.0457010269165039,-0.0022206827998161,-0.0194299928843975,6.868960693359375,-0.0018325957935303,-0.0006108652451075,0.0,-0.005317393690347678,-0.0096725597977638,0.038995552062988256,0.0006108652451075401,0.0003665191587060801,-0.00012217306066304002
1767621252240688000,6.888688232421875,0.0337295532226562,-0.0188777297735214,-0.0146726928651332,6.888980224609375,-0.0006108652451075,0.0,0.0006108652451075,-0.005156254768371579,-0.011116731911897621,0.03995399475097654,0.0007330383057705802,0.00024434610968456015,-0.00024434610968454004
1767621252280805400,6.928805419921875,0.0385189056396484,-0.0069875568151474,0.002148475497961,6.92909716796875,0.0012217304902151,-0.0006108652451075,-0.0012217304902151,-0.005568018555641158,-0.01210906952619548,0.03947544097900388,0.00012217306066304013,-0.0002443460980429999,-0.0006108652567490601
1767621252320910300,6.968910400390625,0.0409107208251953,-0.0233047977089881,0.0044690929353237,6.969201904296875,-0.0006108652451075,0.0006108652451075,0.0018325957935303,-0.0027340881526469983,-0.0139358207583427,0.03755950927734372,0.0003665191587060601,-0.0002443460980429999,-0.0004886921960860199
1767621252361024300,7.009024169921875,0.0385169982910156,-0.0091545805335044,-0.0003549754619598,7.00931640625,-0.0012217304902151,-0.0006108652451075,-0.0006108652451075,8.222311735154195e-05,-0.009127254039049121,0.03947448730468748,0.0003665191587060601,-0.00012217304902149986,-0.00024434609804302
1767621252381081900,7.029081787109375,0.0361213684082031,-0.0113544389605522,-0.0052603408694267,7.029419189453125,-0.0012217304902151,-0.0006108652451075,0.0012217304902151,-0.0018471382558345579,-0.01056276261806484,0.038995552062988256,0.0007330383057705802,0.00012217304902150013,-0.00073303829412906
1767621252401146600,7.049146728515625,0.043304443359375,0.0051651038229465,-0.0005911365151405,7.049438232421875,0.0006108652451075,0.0006108652451075,0.0006108652451075,-0.007057216763496357,-0.0039450697600841396,0.03803844451904294,0.00036651914706452006,-0.00012217304902149986,-0.00085521134315058
1767621252441267700,7.089267822265625,0.0361242294311523,-0.014165099710226,-0.0074983313679695,7.08956005859375,-0.0012217304902151,0.0006108652451075,0.0006108652451075,-0.009868912398815117,-0.0035000883042812193,0.03947544097900388,0.0004886921960860201,-0.00012217304902149986,-0.00085521134315058
1767621252481398000,7.12939794921875,0.0361251831054687,0.0097836665809154,-0.0215812996029853,7.129690185546875,-0.0012217304902151,-0.0006108652451075,0.0,-0.010717997699975917,-0.0060172580182552195,0.04091300964355466,-1.990595188683386e-17,0.00012217304902150013,-0.0009773844038136199
1767621252501454800,7.149454833984375,0.0457019805908203,-0.0069296732544898,-0.0144134536385536,7.129690185546875,-0.0012217304902151,-0.0006108652451075,0.0,-0.013470036536455097,-0.0121590085327625,0.03899765014648434,-0.00012217304902151991,1.3010426069826053e-19,-0.00122173050185662
1767621252521521700,7.169521728515625,0.043309211730957,-0.0239402875304222,-0.0095057673752307,7.1698125,-0.0018325957935303,0.0006108652451075,-0.0012217304902151,-0.014344121515750818,-0.00914205461740494,0.03803958892822262,8.673617379884036e-20,1.3010426069826053e-19,-0.0009773844038136
1767621252561632500,7.209632568359375,0.0337276458740234,-0.0255436487495899,-0.0143513306975364,7.20992431640625,-0.0006108652451075,0.0,0.0,-0.011881999671459137,-0.01285578012466428,0.0389970779418945,0.00012217304902150007,0.0003665191470645201,-0.00109955746447664
1767621252581689900,7.22968994140625,0.0313339233398437,0.0009196698665618,-0.0118687562644481,7.23002734375,0.0,0.0006108652451075,0.0012217304902151,-0.008295238018035837,-0.01323169618844984,0.03516674041748044,0.00012217304902150007,0.0007330382941290401,-0.00097738441545512
1767621252601753000,7.249753173828125,0.0409126281738281,-0.0087849609553813,-0.0092706903815269,7.250044921875,-0.0018325957935303,0.0012217304902151,0.0006108652451075,-0.0080502867698669,-0.014090025052428217,0.03420963287353512,-1.1641539945581036e-11,0.00036651914706452017,-0.00012217306066302
1767621252681997800,7.329997802734375,0.02655029296875,-0.0088092535734176,0.0035203546285629,7.3302900390625,-0.0006108652451075,0.0012217304902151,0.0,-0.005405889451503717,-0.010728100314736339,0.03468971252441402,-0.00012217306066303994,0.0006108652451075401,0.0002443460864015
1767621252722125000,7.370125,0.0385236740112304,-0.0282319318503141,-0.008281011134386,7.370417724609375,0.0024434609804302,-0.0012217304902151,-0.0018325957935303,-0.0031864404678344374,-0.011270951852202359,0.03756427764892574,8.673617379884036e-20,0.0002443460980430201,-1.1641519996261063e-11
1767621252762250200,7.410250244140625,0.0361280441284179,-0.0087340250611305,-0.0011293441057205,7.410546142578125,0.0012217304902151,0.0012217304902151,-0.0006108652451075,-0.005314564704894978,-0.016072418168187098,0.03421344757080074,-0.00024434609804299993,-0.0003665191587060599,0.0006108652451075599
1767621252802364400,7.450364501953125,0.0457067489624023,-0.0017945878207683,-0.0007715113461017,7.45065087890625,-0.0012217304902151,-0.0012217304902151,0.0018325957935303,-0.006715899705886777,-0.01804041899740692,0.03421401977539058,-0.0001221730490214999,-0.0004886922077275799,0.00097738439217208
1767621252882598000,7.530597900390625,0.0241584777832031,-0.032792292535305,-0.0199113115668296,7.530889404296875,0.0012217304902151,-0.0018325957935303,-0.0006108652451075,-0.008052745461463878,-0.012276567518711059,0.037087440490722615,0.0001221730606630601,-0.0002443461096845599,0.0002443460980430201
1767621252962837800,7.610837646484375,0.0265531539916992,-0.0186492577195167,-0.0034863203763961,7.6111298828125,0.0012217304902151,0.0006108652451075,0.0006108652451075,-0.008606888353824556,-0.013838662207126581,0.03565120697021482,0.0002443461096845601,-0.0007330383057705999,8.673617379884036e-20
1767621253083197400,7.731197509765625,0.0528907775878906,0.0005873255431652,-0.0149652399122715,7.731490478515625,-0.0012217304902151,0.0,-0.0006108652451075,-0.013051903992891255,-0.010433702915906881,0.03373527526855467,-0.00024434609804299993,-0.0002443461096845598,0.0007330382941290601
1767621253203569700,7.851569580078125,0.0289468765258789,-0.0165444985032081,-0.0039000585675239,7.851861083984375,0.0,-0.0012217304902151,0.0,-0.007379036396741837,-0.01029824540019032,0.03708629608154294,-0.0001221730490214999,-0.0002443461096845599,0.00024434609804302
1767621253364040400,8.01204052734375,0.0361270904541015,0.0152302086353302,-0.0229965895414352,8.01233203125,0.0024434609804302,0.0012217304902151,-0.0006108652451075,-0.004138888046145437,-0.010995993763208358,0.04091529846191402,-0.0003665191470644999,-0.0002443461096845599,0.0004886921960860401
1767621253404163000,8.0521630859375,0.0409135818481445,-0.0321150049567222,0.0084530264139175,8.052454833984376,-0.0012217304902151,-0.0018325957935303,0.0,-0.005400311574339857,-0.01279305517673488,0.03708267211914058,-0.0004886921960860199,-0.0006108652683906199,0.0006108652451075599
1767621253444291800,8.092291748046875,0.0456981658935546,-0.0221379995346069,0.0127144213765859,8.092583984375,0.0024434609804302,0.0006108652451075,-0.0006108652451075,-0.0017744105309248162,-0.013990492373704857,0.03851699829101558,-0.00024434609804299993,-1.1641539902212949e-11,0.00085521134315058
1767621253524528000,8.172528076171876,0.0337276458740234,-0.0083979815244674,-0.0212723575532436,8.172820068359375,-0.0006108652451075,-0.0018325957935303,-0.0012217304902151,0.004784822836518244,-0.013929589837789497,0.03755836486816402,0.00012217304902152008,0.00012217304902150013,0.0006108652451075599
1767621253564643600,8.2126435546875,0.0361185073852539,-0.022531684488058,0.0142294466495513,8.212935791015624,0.0012217304902151,0.0018325957935303,0.0012217304902151,-0.0016975607722997956,-0.00444761663675306,0.03660011291503902,2.007942423443154e-17,1.1641520126365324e-11,0.0010995574411936
1767621253584702700,8.23270263671875,0.0313339233398437,0.015534721314907,0.0097995772957801,8.212935791015624,0.0012217304902151,0.0018325957935303,0.0012217304902151,-0.008009525388479235,-0.006539702415466281,0.0332485198974609,0.00036651914706454006,-0.00012217303737997983,0.0008552113431505798
1767621253604766000,8.252765869140624,0.0361223220825195,0.01529486104846,-0.0239588916301727,8.253057861328125,0.0012217304902151,-0.0024434609804302,-0.0006108652451075,-0.005597867816686636,-0.004235696047544481,0.030854797363281217,0.0007330382941290601,2.328306020205062e-11,0.0012217304902151
1767621253725132500,8.373132568359376,0.028940200805664,-0.032598428428173,-0.0188454017043113,8.373424072265625,0.0012217304902151,0.0,0.0012217304902151,-0.014616901427507375,-0.0010309405624866611,0.02894058227539058,0.00012217303737998,2.328306020205062e-11,0.0012217304902151
1767621253745180200,8.39318017578125,0.021759033203125,0.0031220503151416,-0.0092140696942806,8.393517333984375,0.0012217304902151,-0.0012217304902151,0.0006108652451075,-0.020214465260505615,-0.002393454313278201,0.027982902526855417,0.00012217303737998005,-0.0003665191354229998,0.00097738439217208
1767621253765244200,8.413244140625,0.0265474319458007,-0.0065079070627689,-0.0308657214045524,8.413536376953125,0.0012217304902151,0.0018325957935303,-0.0018325957935303,-0.017612361162900856,-0.00853122547268866,0.02894096374511714,0.0004886921844445,0.00012217306066304015,0.00073303829412906
1767621253845488000,8.493488037109374,0.0265455245971679,0.0087221525609493,-0.0181882418692111,8.4937802734375,0.0,0.0,0.0012217304902151,-0.017472587525844515,-0.00752826146781444,0.031335639953613235,0.0004886921844445,-0.0002443460980430199,0.0002443460980430199
1767621253865545700,8.513545654296875,0.0409126281738281,-0.0153939947485923,-0.0109483711421489,8.4937802734375,0.0,0.0,0.0012217304902151,-0.016443834453821117,-0.00891080535948274,0.035166549682617135,0.00061086523346602,-0.0003665191587060599,-0.0002443460980430201
1767621253885619000,8.533618896484375,0.0409135818481445,-0.0275836084038019,-0.0181465335190296,8.533910888671874,-0.0012217304902151,-0.0018325957935303,0.0012217304902151,-0.009605507552623698,-0.012751555815339061,0.036603736877441354,0.0012217304902151,-0.00061086526839062,-0.0004886921960860401
1767621253905679400,8.553679443359375,0.0409135818481445,-0.0037906691431999,-0.0040703043341636,8.533910888671874,-0.0012217304902151,-0.0018325957935303,0.0012217304902151,-0.008567585796117737,-0.013478016480803458,0.03708419799804684,0.00109955744119358,-0.00061086526839062,-0.0009773843921720802
1767621253965860000,8.613860107421875,0.0337333679199218,-0.0257116593420505,0.0033259131014347,8.61415185546875,0.0,0.0006108652451075,0.0012217304902151,-0.005701374262571316,-0.00983694307506084,0.037563896179199176,0.0008552113431505601,-0.0007330383174121199,-0.00061086523346602
1767621254005974300,8.653974365234374,0.0289478302001953,0.0050898492336273,-0.0129986330866813,8.654266845703125,-0.0024434609804302,0.0,0.0006108652451075,-0.003429231047630277,-0.0037490636110305807,0.03564853668212886,0.0004886921960860401,-0.0006108652567490798,-0.00012217303737998005
1767621254086217500,8.734217529296876,0.0433111190795898,0.0028113722801208,0.0033826865255832,8.73450927734375,0.0018325957935303,-0.0006108652451075,0.0,-0.0016015589237212973,-0.0025159485638141807,0.03517017364501948,0.00012217304902152008,-0.0008552113315090399,-0.0002443460980430201
1767621254126317000,8.774317138671876,0.0313367843627929,0.0028557889163494,-0.0067858174443244,8.7746083984375,0.0012217304902151,-0.0012217304902151,-0.0006108652451075,-0.004218684136867497,-0.0012192867696285408,0.033254432678222624,-0.0001221730490214999,-0.0008552113315090399,-0.00012217304902152008
1767621254166435600,8.814435546875,0.0385217666625976,0.0023749060928821,0.0050680562853813,8.8147265625,-0.0018325957935303,-0.0030543261673301,-0.0006108652451075,-0.003517935425043077,5.921721458431936e-05,0.03373317718505856,-0.0004886921960860199,-0.0012217304902150997,0.0006108652451075399
1767621254206552300,8.85455224609375,0.0241546630859375,-0.0192283503711223,-0.0097597129642963,8.854844482421875,0.0006108652451075,0.0006108652451075,0.0,-0.003765790909528697,-0.0034482933580875603,0.03229637145996091,-0.0004886921960860199,-0.0013439035392366198,0.00036651913542297984
1767621254246673000,8.8946728515625,0.031341552734375,0.0114823691546916,-0.0094948895275592,8.89496533203125,0.0012217304902151,-0.0018325957935303,-0.0012217304902151,-0.0039871722459792775,-0.005012771487236041,0.035169219970703096,-0.0008552113431505599,-0.0012217304902150997,-1.1641540119053383e-11
1767621254286797600,8.934797607421874,0.0361270904541015,-0.0147261805832386,0.0021434091031551,8.935089599609375,0.0006108652451075,-0.0012217304902151,0.0,-0.009048429876565896,-0.006247254461050021,0.03325157165527342,-0.0003665191354229999,-0.0004886922077275799,0.0006108652451075399
1767621254326916600,8.97491650390625,0.0457010269165039,-0.004966601729393,-0.0078927241265773,8.975203125,-0.0006108652451075,-0.0006108652451075,-0.0024434609804302,-0.006798176467418657,-0.004664272069931021,0.034207916259765596,-0.00036651913542299985,-0.0007330383057705797,0.00024434609804301993
1767621254367022000,9.01502197265625,0.0289335250854492,-0.0037975087761878,-0.0202382318675518,9.01530908203125,0.0012217304902151,0.0006108652451075,0.0018325957935303,-0.004121949523687376,-0.007404402643442121,0.03468513488769528,-0.00036651913542299985,-0.00012217304902149983,-0.0002443460980430201
1767621254407131400,9.05513134765625,0.0289363861083984,-0.0113134384155273,0.0014915540814399,9.055424072265623,-0.0012217304902151,-0.0006108652451075,0.0,-0.0009001430124044571,-0.0028910495340823813,0.0322893142700195,-0.00012217303737997986,-0.00012217304902149983,-0.0004886921960860201
1767621254447254500,9.095254638671875,0.0337276458740234,-0.0022182837128639,0.0038862451910972,9.095546630859374,-0.0012217304902151,0.0012217304902151,-0.0012217304902151,0.0023656826466321628,-0.005189973115920981,0.029894447326660124,8.673617379884036e-20,-0.0004886921960860398,-0.00012217304902150007
1767621254487365000,9.135365234375,0.0241479873657226,0.0078405849635601,0.0182524416595697,9.1356572265625,-0.0006108652451075,-0.0012217304902151,0.0012217304902151,0.0036613885313272233,-0.003268773853778821,0.03180942535400386,0.00024434607475996004,-0.0006108652451075399,-0.0002443460980430201
1767621254527486500,9.175486572265624,0.033726692199707,-0.016461219638586,0.0084364041686058,9.1757783203125,0.0012217304902151,-0.0024434609804302,-0.0018325957935303,-0.00035921745002269744,-0.0028281800448894208,0.03228778839111324,0.00036651912378146006,-0.0007330382941290597,-0.0002443460980430201
1767621254607742500,9.255742431640623,0.0385084152221679,0.005808487534523,-0.0137597024440765,9.256033447265626,0.0006108652451075,0.0,0.0030543261673301,0.0012103307992220025,-0.000820466876029961,0.03276481628417964,0.0010995574179105201,-0.0010995574411935799,0.0002443460980430199
1767621254647866400,9.295866455078125,0.0313282012939453,-0.0091104693710803,-0.0186114758253097,9.296158935546876,-0.0012217304902151,-0.0012217304902151,0.0006108652451075,-0.004044740647077537,-0.002333188056945801,0.034678840637206984,0.00122173047857356,-0.0003665191470645198,0.0002443460980430199
1767621254687990800,9.33599072265625,0.0361127853393554,0.0078202821314334,0.0117339864373207,9.33628271484375,0.0012217304902151,-0.0006108652451075,0.0024434609804302,-0.010631527006626097,-0.0029489018023014005,0.03563556671142572,0.00183259573532264,2.0166160408230382e-17,-0.0006108652334660201
1767621254728109800,9.37610986328125,0.0337181091308593,0.0002769790589809,-0.008022915571928,9.37640185546875,-0.0006108652451075,0.0024434609804302,0.0018325957935303,-0.008543977886438337,-0.00806275010108946,0.03659362792968744,0.0015882496605626802,0.00012217304902152016,-0.00109955744119358
1767621254768227300,9.416227294921876,0.0385103225708007,-0.019539788365364,-0.024497527629137,9.41651953125,-0.0030543261673301,-0.0006108652451075,0.0012217304902151,-0.0049725234508514165,-0.00884453803300856,0.03755187988281244,0.0020769418450072,0.0006108652451075602,-0.0008552113431505601
1767621254808355300,9.456355224609377,0.0432987213134765,-0.0197607539594173,-0.0033219568431377,9.456647216796876,-0.0018325957935303,0.0006108652451075,0.0018325957935303,-0.009791765362024276,-0.013167522847652402,0.037075424194335876,0.00134390355087814,0.0008552113431505601,-0.00109955744119358
1767621254848481800,9.496481689453123,0.0361194610595703,-0.0130194090306758,-0.0007542036473751,9.496773681640626,0.0,0.0012217304902151,0.0030543261673301,-0.0053769640624522965,-0.01738254800438876,0.03659896850585932,0.0010995574411935803,0.0001221730490215002,-0.0007330382941290602
1767621254888597200,9.53659716796875,0.0337305068969726,-0.0137946419417858,-0.0123622231185436,9.5368896484375,0.0,0.0006108652451075,-0.0012217304902151,-0.002512149512767777,-0.01669451817870136,0.032769775390624964,0.0013439035392366,0.0001221730490215002,-0.00061086525674908
1767621254928717300,9.57671728515625,0.0313358306884765,-0.0207981467247009,0.0140510909259319,9.577009765625,0.0012217304902151,-0.0012217304902151,0.0006108652451075,-0.005326628684997537,-0.01411776095628734,0.028462028503417936,0.00146607657661658,-0.00012217304902149977,-0.0007330382941290601
1767621254968831500,9.61683154296875,0.0193643569946289,-0.016099639236927,-0.0101734548807144,9.617123291015623,-0.0024434609804302,-0.0006108652451075,0.0024434609804302,-0.008609948307275737,-0.014346956461667981,0.0322942733764648,0.0012217305018566201,-0.00024434609804301977,-0.00109955745283512
1767621254988887000,9.636886962890625,0.0217599868774414,-0.0068769678473472,-0.0173943527042865,9.617123291015623,-0.0024434609804302,-0.0006108652451075,0.0024434609804302,-0.005229952186346037,-0.01065111830830572,0.030858612060546842,0.0014660765998996401,-0.0003665191470645198,-0.00122173050185662
1767621255008951300,9.656951416015623,0.0552806854248046,-0.014165386557579,-0.0171708017587661,9.657244140625,-0.0018325957935303,0.0006108652451075,0.0018325957935303,-0.010951793938875158,-0.0079372979700565,0.0318172454833984,0.0017104227095842,-0.0003665191470645198,-0.00158824964892114
1767621255029013800,9.677013671875,0.0265522003173828,0.0046845488250255,0.0045377574861049,9.67735107421875,-0.0006108652451075,0.0,0.0,-0.010868794471025418,-0.00857754498720166,0.03660678863525386,0.0013439035625196602,-0.00012217304902151978,-0.0012217305018566
1767621255049078000,9.697078125,0.0361289978027343,-0.0072290450334548,-0.0145581178367137,9.697369384765626,-0.0006108652451075,-0.0012217304902151,0.0018325957935303,-0.007913251966237978,-0.010611071437597241,0.039480972290039,0.0004886922077275601,-0.0002443460980430398,-0.00073303830577056
1767621255089204500,9.73720458984375,0.0433120727539062,-0.0193008743226528,-0.0097584575414657,9.737496337890626,-0.0006108652451075,0.0006108652451075,0.0006108652451075,-0.005503854155540418,-0.010158062726259201,0.03517150878906244,1.7347234759768072e-19,-0.0004886921960860398,-0.0003665191470645
1767621255129330700,9.77733056640625,0.0361309051513671,-0.0170446000993251,-0.0026166401803493,9.777622314453126,0.0,-0.0012217304902151,-0.0018325957935303,-0.006923186033964078,-0.01430638730525966,0.035170745849609296,-0.0002443460980430198,-0.0007330382941290597,-0.0006108652567490601
1767621255169465600,9.817465576171877,0.0337333679199218,-0.0119003430008888,-0.0051238127052783,9.8177578125,0.0,-0.0006108652451075,-0.0006108652451075,-0.005954190343618318,-0.01362959295511242,0.033254432678222576,-2.3283059855105924e-11,-0.0004886921960860398,-0.0004886922077275601
1767621255209588500,9.85758837890625,0.0265483856201171,-0.0160570740699768,-0.0025589019060134,9.857880859375,-0.0018325957935303,-0.0012217304902151,-0.0012217304902151,-0.006864488869905397,-0.0119913555681705,0.02990169525146476,0.00012217302573846013,-0.0006108652451075398,-0.00061086525674908
1767621255249719800,9.8977197265625,0.0265474319458007,-0.0038450732827186,-0.0097131393849849,9.898011962890624,0.0,0.0,0.0030543261673301,-0.006795852631330418,-0.01089236959815022,0.029901123046874922,0.0002443460864015002,-0.0004886921960860198,-0.0009773844154551399
1767621255289857000,9.93785693359375,0.0265483856201171,-0.0111096873879432,-0.0143099501729011,9.938149658203123,-0.0012217304902151,0.0,0.0012217304902151,-0.007641027122735918,-0.010354097932577102,0.02846488952636712,0.0010995574528351202,1.1641540249157644e-11,-0.00109955746447664
1767621255329992200,9.9779921875,0.0361280441284179,-0.0115496702492237,-0.0022734589874744,9.97828369140625,-0.0018325957935303,-0.0006108652451075,-0.0012217304902151,-0.009869372099637938,-0.01006243452429768,0.02894515991210932,0.00134390355087814,0.00012217306066306024,-0.0007330383057705801
1767621255370132000,10.018132080078123,0.0265522003173828,-0.0092089846730232,-0.0093496851623058,10.01842431640625,-0.0006108652451075,0.0018325957935303,0.0036651915870606,-0.010672267526388118,-0.0112325884401798,0.03181991577148432,0.00122173051349816,0.0004886922193691202,-0.0009773844038136
1767621255390196200,10.0381962890625,0.0289497375488281,-0.0145987570285797,-0.0137006267905235,10.038537109375,0.0,-0.0006108652451075,0.0,-0.006232710927724818,-0.007614488899707801,0.034215736389160104,0.0013439035741612002,0.0004886922193691202,-0.00073303830577058
1767621255410273800,10.058273681640625,0.0409212112426757,-0.0096958428621292,-0.0137276165187358,10.05856103515625,-0.0012217304902151,0.0018325957935303,0.0024434609804302,-0.007548382878303497,-0.007323719561100001,0.03373832702636713,0.00158824967220422,0.0006108652683906202,1.164154003231721e-11
1767621255450423600,10.098423583984374,0.038527488708496,0.0069808103144168,0.0078878328204154,10.098711669921874,0.0,0.0,0.0018325957935303,-0.0064866133034228975,-0.007490309327840799,0.03230285644531244,0.0007330383057706001,1.1641540249157644e-11,-0.00012217303737997997
1767621255470480100,10.118480224609376,0.0337409973144531,-0.0100958235561847,-0.0088518187403678,10.1188125,0.0018325957935303,0.0,0.0,-0.003258280456066117,-0.0055377677083015405,0.030865859985351497,0.0002443461096845602,-0.00012217303737997975,0.00012217306066304002
1767621255490616600,10.138616455078123,0.0193748474121093,-0.0100419335067272,-0.0040408372879028,10.138908203125,-0.0012217304902151,-0.0012217304902151,-0.0006108652451075,0.001799456775188443,-0.00593145489692686,0.03134346008300776,-0.0004886921844444997,-0.0007330382941290597,0.00012217306066304002
1767621255530750700,10.178750732421875,0.0217647552490234,-0.0048360489308834,0.0024410374462604,10.17904296875,0.0012217304902151,-0.0012217304902151,-0.0024434609804302,-0.00035425648093221696,-0.011263206601142842,0.0275121688842773,-0.0010995574411935796,-0.0010995574528351198,0.00012217306066304002
1767621255570958800,10.218958740234376,0.043309211730957,-0.0116642788052558,0.011561069637537,10.2192509765625,-0.0012217304902151,-0.0012217304902151,-0.0012217304902151,-0.001662287861108777,-0.011645589768886522,0.02655239105224604,-0.0013439035392365998,-0.0014660766115411796,0.00024434609804302
1767621255651270700,10.299270751953124,0.0193710327148437,-0.0196779482066631,-0.0028807334601879,10.299562744140625,0.0,-0.0018325957935303,-0.0012217304902151,-0.005960607528686517,-0.01152621358633036,0.0284652709960937,-0.0012217304902150997,-0.0013439035625196598,0.00048869219608604
1767621255691388000,10.339387939453124,0.0289421081542968,-0.0120077393949031,-0.0153919756412506,10.3396796875,0.0024434609804302,-0.0018325957935303,-0.0012217304902151,-0.008204194903373697,-0.015291531756520201,0.03133678436279292,-0.0007330382941290597,-0.0009773844154551399,0.00024434609804302
1767621255731506700,10.379506591796876,0.0289392471313476,-0.0094450525939464,-0.0255324356257915,10.37979833984375,0.0,-0.0006108652451075,0.0,-0.011273671686649297,-0.01527238078415388,0.03037815093994136,-0.0008552113547920997,-0.0008552113664336197,0.00012217303737997997
1767621255751563500,10.3995634765625,0.0361223220825195,-0.0236626397818326,-0.0087768994271755,10.399900390625,0.0,0.0006108652451075,0.0,-0.011022901535034138,-0.016859218105673722,0.0332485198974609,-0.0007330383057705797,-0.0004886922077275599,-0.00024434612132608004
1767621255771627800,10.419627685546876,0.0385160446166992,-0.0115685239434242,-0.003786314278841,10.419919921875,-0.0018325957935303,-0.0006108652451075,-0.0018325957935303,-0.011665768176317157,-0.01704760976135724,0.035161781311035124,-0.0002443461096845398,-0.0004886922077275598,-0.00085521136643362
1767621255811750700,10.459750732421876,0.0337228775024414,-0.0276121348142623,-0.0016268827021121,10.46004248046875,-0.0018325957935303,0.0,-0.0006108652451075,-0.005136406049132318,-0.014735819026827763,0.03659591674804684,0.0002443460864015001,-0.0002443461096845598,-0.00097738441545512
1767621255851872300,10.499872314453125,0.0385084152221679,-0.0129496976733207,-0.0186063088476657,10.5001640625,-0.0006108652451075,-0.0018325957935303,0.0012217304902151,-0.005826998129486997,-0.014400349184870681,0.035635566711425745,0.0004886921844445201,-0.0003665191587060598,-0.00158824964892114
1767621255891990000,10.539989990234377,0.0361099243164062,0.002113901078701,0.0071143750101327,10.54028173828125,-0.0006108652451075,0.0006108652451075,0.0024434609804302,-0.0052285809069871365,-0.012229267135262442,0.03611183166503902,0.00036651914706454017,-0.0004886922077275798,-0.00134390353923658
1767621255932100000,10.58010009765625,0.031320571899414,-0.0219852905720472,-0.0122298598289489,10.5803916015625,-0.0030543261673301,0.0,0.0012217304902151,-0.005103366449475237,-0.011047987639903981,0.03898239135742182,0.0008552113547921002,-0.0004886922077275798,-0.00109955742955202
1767621255992277000,10.640277099609374,0.0408973693847656,-0.000713113695383,-0.0007942281663417,10.640613525390624,-0.0006108652451075,-0.0012217304902151,-0.0024434609804302,-0.004508742317557297,-0.010513453930616342,0.03706550598144526,0.00036651915870606017,-0.0004886922077275798,-0.0006108652218244599
1767621256012339200,10.660339111328126,0.0480756759643554,-0.02170573733747,-0.0010008104145526,10.660630859375,-0.0006108652451075,0.0,0.0018325957935303,-0.009182684123516017,-0.013918176293373061,0.03706436157226558,0.00012217306066304024,-0.0007330383057705797,-0.00061086522182446
1767621256052465000,10.70046484375,0.0289239883422851,-0.0102770291268825,-0.015633188188076,10.700756103515625,0.0018325957935303,-0.0018325957935303,-0.0012217304902151,-0.009096019715070658,-0.011517820879816962,0.038020706176757776,1.1641520256469585e-11,-0.0008552113547920799,-0.0003665191470645
1767621256092591600,10.740591552734376,0.0361042022705078,-0.0149097107350826,-0.0162553340196609,10.740883544921877,-0.0006108652451075,-0.0006108652451075,0.0012217304902151,-0.010773652046918818,-0.014380769804120019,0.03706207275390622,0.0004886922077275603,-0.0007330383057705598,-0.0004886921960860199
1767621256132714200,10.78071435546875,0.036102294921875,-0.0099835135042667,-0.0117965377867221,10.781006591796874,-0.0018325957935303,-0.0006108652451075,0.0006108652451075,-0.011932768672704657,-0.01108181402087208,0.03370990753173826,-0.0002443461096845598,-0.0010995574644766198,-0.00024434609804302
1767621256172832500,10.82083251953125,0.0361042022705078,-0.0150278583168983,-0.0091823898255825,10.821124755859374,-0.0012217304902151,-0.0006108652451075,0.0,-0.009277185052633237,-0.00906748026609418,0.03466644287109374,-0.00012217306066303986,-0.0008552113547920598,-0.00036651915870606
1767621256212950800,10.86095068359375,0.0313148498535156,-0.0052109584212303,-0.0067963935434818,10.861242431640624,0.0006108652451075,-0.0018325957935303,-0.0018325957935303,-0.008931893855333276,-0.008514875173568703,0.03227138519287108,-0.0004886922077275599,-0.0009773844038135798,-0.00024434610968456004
1767621256253073400,10.901073486328125,0.0337066650390625,-0.000205360352993,-0.0023552700877189,10.901365234375,0.0012217304902151,-0.0006108652451075,-0.0006108652451075,-0.009511192888021418,-0.0113007605075836,0.030834007263183576,-0.0007330383057705598,-0.0010995574528350999,0.0001221730490215
1767621256293193700,10.94119384765625,0.0241289138793945,-0.0121466852724552,-0.0145288780331611,10.941485595703124,0.0,-0.0012217304902151,-0.0006108652451075,-0.011142747104167879,-0.009636357426643361,0.03083229064941404,-0.0008552113547920598,-0.0010995574528350999,0.0004886921960860199
1767621256313251300,10.961251220703126,0.0289154052734375,-0.0239129401743412,-0.0146930329501628,10.941485595703124,0.0,-0.0012217304902151,-0.0006108652451075,-0.013249780982732717,-0.0089397110044956,0.028436088562011703,-0.0006108652451075,-0.0008552113431505397,0.0004886921960860199
1767621256333316000,10.981316162109374,0.0360956192016601,-0.0067058429121971,-0.0173401609063148,10.98160791015625,0.0006108652451075,-0.0006108652451075,-0.0006108652451075,-0.01483805924654002,-0.00923560261726376,0.0279558181762695,-0.0006108652451075,-0.0009773843921720596,-1.9992688060632702e-17
1767621256353371400,11.001371337890625,0.0193338394165039,-0.0017277263104915,-0.017331562936306,10.98160791015625,0.0006108652451075,-0.0006108652451075,-0.0006108652451075,-0.01398663148283954,-0.01000451371073718,0.02699680328369138,-0.00036651914706449984,-0.0004886921960860198,0.00012217304902148001
1767621256373435400,11.021435302734377,0.0313053131103515,-0.0016848184168338,-0.0102966614067554,11.0217275390625,-0.0012217304902151,-0.0012217304902151,-0.0006108652451075,-0.010582303255796417,-0.005552434921264601,0.02699623107910152,-0.00012217304902149983,-0.0004886921960860198,-0.00024434610968458
1767621256413547500,11.061547607421875,0.0193338394165039,-0.0159912407398223,-0.0102717392146587,11.061838623046874,0.0006108652451075,0.0012217304902151,0.0006108652451075,-0.010974331200122818,-0.005567052215337702,0.026517486572265582,1.7347234759768072e-19,-0.0006108652451075398,-0.0006108652567491
1767621256453667600,11.10166748046875,0.0289125442504882,-0.0016525462269783,0.0023286081850528,11.101960693359375,-0.0018325957935303,-0.0012217304902151,0.0006108652451075,-0.01139080449938772,-0.010862328484654382,0.02986984252929682,0.00012217304902150018,-0.0007330382941290597,-0.0009773844038136199
1767621256493800700,11.14180078125,0.0337018966674804,-0.0067789293825626,-0.0193003006279468,11.14208740234375,-0.0012217304902151,-0.0012217304902151,0.0,-0.010302011668682078,-0.01286848671734328,0.030349540710449163,0.0006108652567490602,2.6020852139652105e-19,-0.0007330383057706
1767621256513851400,11.161851318359377,0.0360956192016601,-0.0282041076570749,-0.0194139294326305,11.14208740234375,-0.0012217304902151,-0.0012217304902151,0.0,-0.010486333817243558,-0.01162658296525474,0.033703422546386655,0.0004886922077275603,-0.00012217304902151972,-0.00109955745283512
1767621256533913600,11.18191357421875,0.0337038040161132,-0.0117156095802783,-0.0048526972532272,11.182200439453124,0.0,0.0024434609804302,0.0018325957935303,-0.01463151723146434,-0.013129619136452622,0.03561973571777338,1.7347234759768072e-19,2.6020852139652105e-19,-0.00012217306066304002
1767621256574026800,11.22202685546875,0.0361032485961914,-0.0097817219793796,-0.0111933499574661,11.222318359375,-0.0012217304902151,0.0006108652451075,0.0,-0.011050692200660659,-0.01217101775109762,0.03514194488525386,0.00012217304902150018,0.00024434609804302026,-0.00012217306066304002
1767621256614148000,11.262148193359376,0.0384941101074218,-0.0091677270829677,-0.0183973088860511,11.262440185546875,0.0030543261673301,-0.0006108652451075,-0.0018325957935303,-0.011787678301334339,-0.00837331116199488,0.03370647430419918,1.7347234759768072e-19,0.00024434609804302026,-0.00024434612132608004
1767621256654255000,11.302255126953124,0.0313129425048828,-0.0019859224557876,-0.0013961754739284,11.302547119140623,-0.0012217304902151,0.0,0.0006108652451075,-0.009236426651477777,-0.008776089549064602,0.03370666503906246,-0.00036651915870605984,2.6020852139652105e-19,-0.00024434612132608004
1767621256694367000,11.342366943359377,0.0289182662963867,-0.0092155747115612,-0.0230988599359989,11.342658203125,-0.0018325957935303,-0.0012217304902151,-0.0006108652451075,-0.008711677789688076,-0.005239176005125042,0.03035411834716792,-0.00036651915870605984,-0.00012217304902149975,-0.00024434612132608004
1767621256734481000,11.38248095703125,0.0337047576904296,-0.0137295015156269,0.0079035609960556,11.382772705078125,0.0,0.0012217304902151,0.0,-0.007631051540374736,-0.005703632533550261,0.028917884826660117,1.7347234759768072e-19,0.0003665191587060603,-0.00036651915870606006
1767621256774605000,11.42260498046875,0.0193405151367187,0.0079028457403182,-0.0085696056485176,11.42289697265625,-0.0012217304902151,0.0,0.0,-0.010293562710285175,-0.006606078892946241,0.026523971557617137,-0.0003665191470645198,2.6020852139652105e-19,-0.0002443461096845401
1767621256814735000,11.462735107421874,0.0313129425048828,-0.0114900097250938,-0.0129941776394844,11.463026611328123,0.0024434609804302,0.0018325957935303,0.0,-0.006684870272874817,-0.0070189356803894015,0.024608993530273376,-0.0004886921960860398,0.0003665191470645202,0.00036651914706453995
1767621256854854400,11.5028544921875,0.0193433761596679,-0.0064981542527675,-0.0147087313234806,11.503146728515626,-0.0006108652451075,-0.0018325957935303,-0.0012217304902151,-0.009727735817432377,-0.0045604906976222815,0.026525115966796818,-0.0007330382941290597,0.00024434609804300025,0.0006108652451075599
1767621256894967300,11.54296728515625,0.0193433761596679,-0.011279858648777,-0.0050553977489471,11.5432587890625,0.0012217304902151,0.0006108652451075,-0.0012217304902151,-0.010901428759098017,-0.007830301672220182,0.028919601440429644,-0.0003665191354229998,0.00036651914706450027,0.0006108652451075599
1767621256915018500,11.5630185546875,0.0432853698730468,-0.0014372766017913,-0.0073107667267322,11.5432587890625,0.0012217304902151,0.0006108652451075,-0.0012217304902151,-0.009729462862014716,-0.002983751893043482,0.028920173645019476,2.328306024541871e-11,0.00012217303737994023,-0.00012217304902150007
1767621256935080700,11.583080810546877,0.0313129425048828,-0.0084462091326713,-0.0144380703568458,11.583372802734376,-0.0012217304902151,0.0006108652451075,0.0018325957935303,-0.011695893108844696,-0.0023864313960075016,0.0298772811889648,-0.0002443460747599597,0.00012217303737994023,-0.00012217304902150007
1767621256955140600,11.603140625,0.031315803527832,0.0127427391707897,-0.0071343481540679,11.583372802734376,-0.0012217304902151,0.0006108652451075,0.0018325957935303,-0.014172849804162918,-0.0012252055108546817,0.029875946044921838,2.328306024541871e-11,-0.00012217306066305975,0.00012217304902151991
1767621257015332600,11.66333251953125,0.0241289138793945,-0.0035115517675876,-0.0245408825576305,11.663624755859376,-0.0006108652451075,-0.0018325957935303,-0.0024434609804302,-0.017626328021287857,-0.003931026160716981,0.02843818664550778,0.00024434612132608025,-0.00036651915870605973,0.0003665191470645399
1767621257055461400,11.70346142578125,0.0193367004394531,-0.0054737292230129,-0.0174401812255382,11.703753173828124,0.0024434609804302,-0.0006108652451075,0.0,-0.011959346756339037,-0.004242165386676762,0.027958297729492137,1.1641520213101497e-11,-0.0008552113664336197,0.0008552113431505798
1767621257075523300,11.7235234375,0.0360965728759765,-0.0149663798511028,-0.0245781578123569,11.703753173828124,0.0024434609804302,-0.0006108652451075,0.0,-0.013565203920006718,-0.008292759209871261,0.028435325622558537,-0.0003665191470645398,-0.0008552113664336197,0.0006108652451075599
1767621257095587800,11.743587890625,0.0289134979248046,-0.0100019052624702,0.0138968359678983,11.743879150390624,0.0012217304902151,-0.0018325957935303,0.0006108652451075,-0.012089257314801177,-0.008584287762641881,0.028434371948242144,0.00036651914706452017,-0.0004886922077275598,0.0010995574528351198
1767621257135698000,11.783697998046875,0.033700942993164,-0.0075102299451828,-0.0151636339724063,11.783989990234376,-0.0024434609804302,0.0006108652451075,0.0,-0.010524686798453298,-0.008551324158906902,0.03130779266357416,0.0008552113431505602,-0.0004886922077275598,0.00061086525674908
1767621257175818200,11.823818359375,0.0241241455078125,-0.0049691945314407,-0.0171611495316028,11.82410986328125,0.0018325957935303,0.0,0.0012217304902151,-0.0066209461539983375,-0.009560320153832402,0.03226604461669916,0.00109955744119358,-0.00036651915870605973,-0.0004886921728029799
1767621257215944200,11.863944091796874,0.0337038040161132,-0.005308911204338,-0.0096173286437988,11.864236572265623,0.0,-0.0006108652451075,0.0024434609804302,-0.012305634468793817,-0.011569661647081342,0.03466110229492182,0.0012217304902151001,2.6020852139652105e-19,-0.00134390350431202
1767621257256066000,11.904066162109377,0.0408878326416015,-0.0200113598257303,-0.0050594545900821,11.9043583984375,-0.0030543261673301,0.0,0.0012217304902151,-0.015019647032022437,-0.011173718422651241,0.03705635070800776,0.0012217304902151001,-0.00036651914706451973,-0.001099557406269
1767621257276125400,11.92412548828125,0.0408887863159179,-0.0200486127287149,-0.0145266056060791,11.9043583984375,-0.0030543261673301,0.0,0.0012217304902151,-0.014478276669979057,-0.011738844960927902,0.03992996215820306,0.0017104227095842,-0.00012217304902149975,-0.00146607656497506
1767621257296187100,11.944187255859376,0.0456771850585937,-0.0055305138230323,-0.0287336967885494,11.9444794921875,-0.0012217304902151,-0.0012217304902151,0.0,-0.012980873882770496,-0.013788734376430462,0.03897323608398433,0.0013439035625196602,2.6020852139652105e-19,-0.0015882496139965597
1767621257316243000,11.964242919921874,0.038492202758789,-0.007794827222824,-0.0144542977213859,11.964580078125,0.0,0.0012217304902151,0.0036651915870606,-0.01477863788604732,-0.009458780661225283,0.03801593780517572,0.0013439035625196602,2.6020852139652105e-19,-0.00085521133150904
1767621257336302300,11.98430224609375,0.0289201736450195,-0.0155583582818508,-0.002130314707756,11.984593994140624,-0.0006108652451075,0.0,0.0006108652451075,-0.013711178302764837,-0.00802823603153224,0.036100769042968696,0.00109955746447664,-0.00012217304902149975,0.0
1767621257376416800,12.024416748046876,0.0361013412475585,0.0016384087502956,-0.0140482746064662,12.02470849609375,0.0006108652451075,0.0,0.0012217304902151,-0.009333780407905518,-0.00757364407181736,0.030833625793456977,0.0006108652683906003,0.00024434609804302026,0.00061086525674908
1767621257396474000,12.04447412109375,0.0313129425048828,-0.0128958895802497,-0.0091893076896667,12.044811767578125,0.0012217304902151,-0.0006108652451075,0.0,-0.011128354817628798,-0.0032194755971431607,0.029876327514648377,-0.0003665191470645398,2.6020852139652105e-19,0.00061086525674908
1767621257416541000,12.064541015625,0.0193414688110351,-0.0032575540244579,-0.0068467073142528,12.064832763671877,0.0018325957935303,0.0006108652451075,-0.0024434609804302,-0.011051327735185558,-0.0015918508172035012,0.029875755310058538,-0.0004886921960860398,0.00012217304902150026,0.00061086525674908
1767621257456661500,12.10466162109375,0.033705711364746,0.013976015150547,-0.0234271697700023,12.10495361328125,0.0,0.0,-0.0012217304902151,-0.009063655883073757,-0.0028003841638564613,0.02987480163574214,-0.0006108652451075598,-0.00012217304902151972,0.0007330383057706
1767621257496789500,12.14478955078125,0.0289173126220703,-0.0074202343821525,-0.0017451792955398,12.14508154296875,-0.0006108652451075,0.0006108652451075,0.0,-0.011390799283981278,0.0026594489812851187,0.029874229431152276,-0.0007330382941290597,-1.973247953923618e-17,0.00024434610968456004
1767621257536915500,12.18491552734375,0.0360965728759765,-0.0044042579829692,-0.0041099153459072,12.18520654296875,0.0012217304902151,-0.0012217304902151,0.0006108652451075,-0.009894251078367219,-0.0009280137717723611,0.03322525024414056,-0.00036651914706451984,-0.00012217304902151972,-0.0001221730490215
1767621257577038300,12.225038330078124,0.0313100814819335,0.0144032761454582,-0.0208250246942043,12.2253251953125,-0.0012217304902151,0.0,-0.0006108652451075,-0.007959032058715818,-0.004177130013704261,0.032266998291015564,1.3010426069826053e-19,-0.00036651914706453974,0.00012217304902152
1767621257617185800,12.265185791015623,0.0360965728759765,-0.0211948677897453,0.0006360337138175,12.265472412109377,0.0,0.0,-0.0006108652451075,-0.009440056979656216,-0.00031184405088422113,0.03322429656982414,-0.00012217304902149986,-0.00036651914706453974,0.00061086525674908
1767621257657293000,12.30529296875,0.028914451599121,-0.0022695660591125,-0.0137510746717453,12.305586181640624,0.0012217304902151,-0.0012217304902151,0.0006108652451075,-0.009011947363615018,-0.00032965838909148113,0.031787681579589756,2.0122792321330962e-17,-0.0004886922077275797,0.0008552113547921
1767621257697419000,12.3454189453125,0.0337038040161132,0.0119061954319477,-0.0091503039002418,12.3457109375,0.0018325957935303,0.0006108652451075,-0.0006108652451075,-0.008746484667062737,-0.0026238314807415014,0.03082885742187492,-0.00036651914706451984,-0.0006108652567490797,0.00061086525674908
1767621257737543200,12.385543212890624,0.0289134979248046,-0.0044933296740055,-0.0019693672657012,12.385834716796875,0.0024434609804302,-0.0018325957935303,0.0012217304902151,-0.0055899560451507175,0.0013643749058246586,0.032263755798339754,-0.0004886921960860399,-0.0009773844154551399,0.00061086525674908
1767621257777657600,12.42565771484375,0.0265159606933593,0.0029324106872081,-0.0194977112114429,12.42594921875,-0.0024434609804302,-0.0006108652451075,-0.0024434609804302,-0.008261066675186116,0.0007120572030544185,0.031782722473144454,-0.0007330382941290398,-0.0007330383174121198,-0.00024434607475996
1767621257817771000,12.46577099609375,0.0432710647583007,-0.0012538358569145,0.0164186768233776,12.4660625,0.0,-0.0018325957935303,-0.0012217304902151,-0.008979827165603596,-0.004614409059286121,0.032258605957031186,-0.00012217304902149986,-0.0012217305251396797,-0.0007330382824875199
1767621257857874700,12.505874755859375,0.0265092849731445,-0.0055311545729637,-0.0271066278219223,12.506166259765624,-0.0030543261673301,0.0,-0.0006108652451075,-0.011669839918613398,-0.006270156800746922,0.03081989288330072,-0.00036651914706451984,-0.0004886922077275598,-0.00158824963727962
1767621257897980000,12.54597998046875,0.0360832214355468,-0.014726135879755,-0.0127441063523292,12.546271240234375,-0.0006108652451075,-0.0018325957935303,0.0024434609804302,-0.011711333692073778,-0.010349955782294262,0.031776237487792916,0.0004886922077275801,-0.0004886922077275598,-0.0014660765998996401
1767621257918029600,12.566029541015626,0.0217199325561523,-0.0127720683813095,-0.0154194310307502,12.56636669921875,-0.0018325957935303,0.0018325957935303,0.0,-0.017388971149921356,-0.013730147480964641,0.029382514953613235,0.0008552113547921,0.00012217304902152024,-0.0014660765998996401
1767621257938091000,12.586091064453123,0.0312976837158203,-0.0174665842205286,-0.0197051800787448,12.586382568359374,-0.0018325957935303,-0.0006108652451075,0.0018325957935303,-0.011408742517232838,-0.0100439079105854,0.0308202743530273,0.0010995574528351003,0.00024434609804302026,-0.00109955746447664
1767621257978208000,12.6262080078125,0.0313024520874023,-0.0181547943502664,-0.0119695104658603,12.626499755859374,0.0,0.0012217304902151,0.0006108652451075,-0.011086840927600797,-0.01267649382352828,0.028907203674316363,0.0006108652567490601,0.0004886922077275802,-0.00122173051349816
1767621258018331100,12.6663310546875,0.0336980819702148,0.0129000432789325,0.0027945153415203,12.66662353515625,-0.0012217304902151,0.0006108652451075,0.0006108652451075,-0.007862225919961895,-0.01327485516667364,0.03273963928222652,0.0008552113547920801,0.00012217304902152024,-0.0008552113547921
1767621258058441200,12.706441162109376,0.0265178680419921,-0.0278890654444694,-0.011134598404169,12.706733154296876,-0.0012217304902151,-0.0006108652451075,0.0,-0.006165521591901757,-0.008659445866942402,0.03274154663085932,0.00036651914706452017,0.0004886921960860402,-1.7347234759768072e-19
1767621258098543600,12.746543701171875,0.0408821105957031,-0.0157638750970363,0.0007036440074443,12.746835205078124,0.0,0.0,0.0012217304902151,-0.004524574428796757,-0.008177811652421941,0.03465785980224604,0.0003665191470645201,0.00024434609804302026,0.0003665191587060599
1767621258118595600,12.766595703125,0.0313072204589843,0.0056104622781276,-0.0112216584384441,12.76694677734375,0.0024434609804302,0.0012217304902151,-0.0006108652451075,-0.005799666792154297,-0.01350118517875668,0.03322238922119136,1.3010426069826053e-19,0.00024434609804302026,0.0002443460980430198
1767621258138636300,12.78663623046875,0.0408840179443359,-0.0157466232776641,-0.0037647746503353,12.78692822265625,0.0018325957935303,0.0,0.0006108652451075,-0.006218796223402017,-0.011009110510349241,0.035137557983398404,-0.0003665191587060599,0.00012217304902150026,0.0002443460980430199
1767621258178750500,12.82675048828125,0.0265207290649414,-0.0137168243527412,-0.0035809464752674,12.827041748046875,-0.0018325957935303,0.0006108652451075,-0.0012217304902151,-0.010083112120628318,-0.008307619392871822,0.03274173736572262,-0.0006108652567490798,0.0004886922077275603,0.0004886921960860399
1767621258238915000,12.8869150390625,0.0360937118530273,-0.0154286921024322,-0.0132302455604076,12.887251953125,-0.0012217304902151,-0.0012217304902151,-0.0018325957935303,-0.008617318421602196,-0.011796534806489883,0.03369789123535154,-0.0008552113664336399,-0.00012217304902151972,-0.0002443460980430201
1767621258279024400,12.9270244140625,0.0289030075073242,-0.0022564195096492,-0.0186179354786872,12.927361572265625,0.0012217304902151,0.0018325957935303,0.0,-0.008690661936998318,-0.006177669763565022,0.033216857910156224,-0.0009773844154551399,-0.00012217304902151972,-0.00036651915870606017
1767621258299086000,12.947086181640625,0.0360879898071289,-0.0118341147899627,-0.0038926899433135,12.9473779296875,-0.0012217304902151,-0.0018325957935303,-0.0018325957935303,-0.011544344574212977,-0.004365552216768221,0.03752460479736324,-0.0008552113664336199,0.0001221730606630403,-0.00036651915870606017
1767621258339196200,12.987196044921877,0.0384788513183593,0.0123477019369602,-0.0041314922273159,12.98748828125,0.0012217304902151,0.0,0.0,-0.008078105002641637,-0.0012250401079654414,0.03704471588134762,-0.0001221730490214999,0.0004886922077275603,-0.0004886922193691001
1767621258379304700,13.0273046875,0.0480594635009765,-0.0046562366187572,-0.0178493596613407,13.027595947265626,-0.0018325957935303,0.0018325957935303,-0.0006108652451075,-0.006813734024763077,-0.0011972628533840014,0.040876388549804646,0.00012217304902152013,0.00012217304902150026,-0.00085521136643362
1767621258419424800,13.0674248046875,0.0336942672729492,0.0002738684415817,0.0041009522974491,13.067716552734376,-0.0018325957935303,0.0006108652451075,0.0018325957935303,-0.006572693586349457,-0.0006835848093032617,0.040876960754394474,0.00012217304902152013,0.0002443461096845403,-0.00024434610968454015
1767621258459540200,13.107540283203123,0.0480613708496093,-0.002117533236742,-0.0122960805892944,13.10783251953125,-0.0006108652451075,0.0,0.0012217304902151,-0.0049196280539035575,-0.0010556377470493212,0.03944091796874996,-0.0002443461096845399,0.0001221730606630403,-0.0002443461096845401
1767621258499653000,13.147653076171874,0.0360908508300781,-0.009265724569559,-0.0026874877512454,13.14794482421875,0.0018325957935303,-0.0012217304902151,-0.0018325957935303,-0.0034141458570956977,-0.0031453322619199612,0.03560905456542966,-1.1641539902212949e-11,-0.0002443460980430197,-0.00024434610968454015
1767621258539767600,13.187767578125,0.0312986373901367,0.0104874372482299,0.0041338354349136,13.188059326171874,0.0012217304902151,-0.0006108652451075,-0.0018325957935303,-0.006765041500329938,-0.004321062937378861,0.03512916564941402,-0.00024434612132609993,-0.0002443460980430197,1.986258379993444e-17
1767621258579871000,13.22787109375,0.028900146484375,-0.0151047091931104,-0.0103219486773014,13.22816259765625,-0.0018325957935303,0.0,0.0006108652451075,-0.0034604579210281176,-0.003127142414450641,0.030818557739257773,-0.0006108652683906198,-0.00036651914706451973,1.986258379993444e-17
1767621258599927600,13.247927490234376,0.031294822692871,-0.0056047849357128,-0.0126535259187221,13.2482646484375,-0.0006108652451075,0.0006108652451075,0.0006108652451075,-0.0034950561821460576,-0.001938573643565181,0.028423118591308562,-0.0002443461096845599,-0.0002443460980429997,-0.00036651915870604016
1767621258619994000,13.267994140625,0.0265083312988281,0.0038520693778991,0.0042268373072147,13.268285888671874,-0.0006108652451075,-0.0006108652451075,-0.0006108652451075,-0.003002528846263877,-0.004221796616911862,0.02794380187988278,0.00085521136643362,0.00012217304902152024,-0.0010995574528351
1767621258660116700,13.30811669921875,0.024113655090332,-0.0033228807151317,-0.0028604790568351,13.30840283203125,0.0,-0.0006108652451075,0.0,-0.002922146767377837,-0.005361375212669342,0.026029586791992142,0.0007330383174121202,0.00024434609804302026,-0.0009773843921720602
1767621258680163300,13.328163330078125,0.0289020538330078,-0.0009286776185035,0.0065964721143245,13.3284951171875,-0.0024434609804302,0.0012217304902151,0.0036651915870606,0.001000629365444183,-0.003612351417541481,0.028903770446777298,0.0004886922193691202,-0.00024434610968453977,-0.0010995574411935803
1767621258700220400,13.348220458984375,0.0193290710449218,-0.0208026021718978,-0.0099200382828712,13.3485078125,-0.0012217304902151,0.0006108652451075,0.0,-0.0009188659489154569,-0.006124641001224482,0.03225612640380854,0.00097738442709668,-0.00024434610968453977,-0.00085521134315058
1767621258720268000,13.36826806640625,0.0456657409667968,0.0031403340399265,0.006960354745388,13.36860009765625,-0.0012217304902151,-0.0018325957935303,-0.0006108652451075,-0.0038526728749274973,-0.0024873852729797212,0.03225688934326166,0.0014660766231827202,-0.00012217306066303977,-0.00073303829412908
1767621258740321300,13.3883212890625,0.0432701110839843,-0.0087093785405159,-0.0053706392645835,13.38861328125,0.0006108652451075,-0.0006108652451075,0.0018325957935303,-0.005338241159915877,-0.0008831188082695016,0.034173393249511665,0.00097738440381362,-0.0006108652567490797,-2.0166160408230382e-17
1767621258780434700,13.4284345703125,0.0241174697875976,0.0148633979260921,-0.0175295136868953,13.428726318359375,0.0006108652451075,0.0,0.0024434609804302,-0.006433706730604118,0.0036897704005241184,0.03752574920654291,0.00122173050185664,-0.0009773844038135997,0.0004886921960860198
1767621258820540200,13.4685400390625,0.0384845733642578,0.0070926547050476,-0.0008313693106174,13.468831787109377,0.0012217304902151,-0.0012217304902151,0.0012217304902151,-0.010937559604644698,0.004381084442138639,0.036568641662597615,0.0019547687843441603,-0.0004886921960860398,0.00036651913542297984
1767621258840594000,13.488593994140626,0.0360908508300781,0.0020618438720703,-0.0153973661363124,13.468831787109377,0.0012217304902151,-0.0012217304902151,0.0012217304902151,-0.009540271013975098,0.005481804162263839,0.03273906707763668,0.0017104226746596,-0.0004886921960860398,0.0006108652451075399
1767621258860654300,13.508654296875,0.0408802032470703,0.0065969042479991,-0.0155589096248149,13.50894580078125,-0.0018325957935303,0.0006108652451075,0.0030543261673301,-0.007172048836946438,0.0004071936011314191,0.03465557098388668,0.00122173047857356,-0.0004886921960860398,0.0002443460980430199
1767621258900768000,13.54876806640625,0.0241222381591796,-0.0032057799398899,0.0016158036887645,13.54905908203125,0.0018325957935303,-0.0006108652451075,0.0006108652451075,-0.007664385437965338,-0.0031130865216255207,0.03321990966796871,0.0013439035392366003,-0.00012217304902151972,-0.00024434609804302015
1767621258920823300,13.5688232421875,0.0336999893188476,-0.01050965487957,-0.005688402801752,13.56916015625,-0.0012217304902151,0.0,0.0,-0.008605410903692198,-0.0013879127800464808,0.032742118835449155,0.0010995574411935803,0.00012217304902150026,-0.00024434609804302015
1767621258940888600,13.588888671875,0.0313062667846679,-0.0105087459087371,-0.0032930523157119,13.5891806640625,-0.0012217304902151,0.0006108652451075,0.0018325957935303,-0.007587196677923158,-0.003919278830289821,0.03082771301269524,0.0004886922077275602,2.6020852139652105e-19,0.00036651915870605984
1767621258981006800,13.6290068359375,0.0337018966674804,0.0106877125799655,-0.0201024934649467,13.629298828125,0.0012217304902151,0.0,0.0,-0.010952216386794977,-0.0016900338232517208,0.03274402618408196,0.0006108652567490802,0.00024434609804300025,-0.00012217304902150018
1767621259001057500,13.6490576171875,0.0313081741333007,-0.0060599260032176,-0.0104678384959697,13.629298828125,0.0012217304902151,0.0,0.0,-0.01282162517309184,0.0005144208669662393,0.03226642608642572,0.0008552113547921002,0.00036651914706450027,1.9819215713035022e-17
1767621259061219800,13.7092197265625,0.0337038040161132,0.0079404450953006,-0.0152092948555946,13.709511474609377,-0.0006108652451075,0.0006108652451075,0.0012217304902151,-0.010973766446113557,0.0018585689365863591,0.030830001831054644,0.00012217303737998018,0.00012217304902150026,0.0004886921960860598
1767621259081271300,13.729271240234375,0.0313119888305664,0.0005126185715198,-0.0150354467332363,13.709511474609377,-0.0006108652451075,0.0006108652451075,0.0012217304902151,-0.007655319571495017,-0.003861841931939121,0.0313085556030273,0.0003665191354230001,0.0006108652451075402,0.0004886921960860598
1767621259141453300,13.789453369140626,0.0241241455078125,-0.0037880055606365,0.0059462413191795,13.789744873046876,0.0012217304902151,-0.0006108652451075,-0.0018325957935303,-0.0076046168804168365,-0.0005347926169634209,0.03130893707275386,0.00012217303737998013,0.0004886921960860402,0.0004886921960860598
1767621259181569500,13.829569580078124,0.0360946655273437,-0.0179143417626619,-0.003510259091854,13.829860595703124,0.0012217304902151,0.0024434609804302,0.0012217304902151,-0.008533246815204577,-0.002832425013184561,0.03274517059326168,-0.00036651915870605984,0.0003665191470645403,0.0009773844038136197
1767621259201625000,13.849625,0.0313100814819335,0.0105753205716609,-0.0102143250405788,13.849962646484377,0.0012217304902151,-0.0006108652451075,-0.0012217304902151,-0.005589336901903098,-0.004664931073784821,0.03561801910400386,-0.0004886922077275799,0.0004886921960860602,0.0006108652567490797
1767621259221686800,13.869686767578123,0.0408849716186523,-0.0035477168858051,-0.0198524445295333,13.869978515625,0.0018325957935303,0.0,-0.0012217304902151,-0.005241809785365996,-0.003391483053565041,0.03753547668457026,0.0006108652683906003,0.0004886921960860604,0.00012217306066303986
1767621259261799200,13.909799072265624,0.0456762313842773,-0.0086499117314815,-0.0003158971667289,13.91009130859375,-0.0024434609804302,0.0012217304902151,0.0006108652451075,-0.003051164001226397,-0.0004666693508625212,0.03610210418701166,0.0007330383290536402,0.00012217304902152024,-0.0003665191354230001
1767621259301906400,13.949906494140626,0.0337114334106445,0.0025792345404624,0.007683876901865,13.9501982421875,-0.0012217304902151,-0.0006108652451075,0.0036651915870606,-0.004046005755662897,-0.003800256550312041,0.038021469116210876,0.0012217305251396803,-0.00012217306066303977,-0.0008552113315090402
1767621259342025000,13.99002490234375,0.0289278030395507,-0.0032902732491493,0.007442969828844,13.990316650390625,-0.0012217304902151,0.0006108652451075,0.0018325957935303,-0.002612206339836097,-0.00625245571136474,0.03754711151123042,0.0014660766231827003,-0.00012217306066303977,-0.0013439035392366
1767621259422267000,14.070266845703124,0.0409069061279296,-0.0060926154255867,-0.0151885338127613,14.07055908203125,-0.0012217304902151,-0.0018325957935303,0.0012217304902151,-0.005977548658847797,-0.00963842570781708,0.03850917816162104,0.0014660766231827003,-0.0004886922077275598,-0.0008552113431505602
1767621259462385400,14.110385498046876,0.03851318359375,-0.0158087126910686,-0.0126834474503993,14.110677490234377,-0.0006108652451075,0.0,0.0,-0.008021395653486238,-0.0104603365063667,0.03851242065429682,0.0003665191470645201,-0.0006108652567490797,-0.0003665191470645202
1767621259502508800,14.1505087890625,0.0504865646362304,-0.0255797617137432,-0.0171426087617874,14.150800537109374,0.0,-0.0006108652451075,0.0006108652451075,-0.006233227252960177,-0.013858007267117462,0.03659877777099604,-0.0003665191703475999,-0.0009773844038135997,0.0001221730490215198
1767621259542622200,14.190622314453124,0.0337276458740234,-0.0015303194522857,-0.0025353580713272,14.1909140625,0.0012217304902151,-0.0012217304902151,-0.0018325957935303,-0.004224675148725478,-0.01767975129187102,0.03516235351562496,-0.0003665191703475999,-0.0007330382941290397,-1.1641520213101497e-11
1767621259562678000,14.210677978515625,0.0193595886230468,-0.0202786270529031,0.0163838118314743,14.1909140625,0.0012217304902151,-0.0012217304902151,-0.0018325957935303,-0.001246540248394017,-0.014393350109457942,0.03276901245117182,-0.00012217307230457994,-0.0009773843921720596,-0.0004886921960860402
1767621259582741500,14.230741455078125,0.0337247848510742,-0.0252013355493545,-0.0051457732915878,14.23103271484375,-0.0018325957935303,-0.0006108652451075,0.0012217304902151,0.00020619556307792316,-0.0092481855303049,0.030854415893554636,-0.0004886922193690999,-0.00122173050185662,-0.0003665191470645402
1767621259622861000,14.270861083984377,0.0265464782714843,0.0006232932209968,0.002207227051258,14.271152587890626,-0.0030543261673301,-0.0012217304902151,0.0012217304902151,-0.0032166905701160368,-0.01223487369716166,0.03133354187011714,-0.0003665191587060599,-0.0009773844038135997,-0.0004886921960860601
1767621259662984200,14.310984130859374,0.0409135818481445,0.000146061182022,-0.0098789297044277,14.311276123046875,0.0006108652451075,-0.0018325957935303,-0.0012217304902151,-0.006210051476955417,-0.009939156472682942,0.03468532562255856,1.3010426069826053e-19,-0.0007330383057705797,-0.0006108652451075802
1767621259703100400,14.351100341796876,0.0361232757568359,-0.0164637602865695,-0.019649788737297,14.351392333984377,0.0006108652451075,0.0,-0.0012217304902151,-0.006358521431684497,-0.006204490363597862,0.03324871063232418,0.0003665191354230001,-0.0007330383057705797,-0.0002443460864015202
1767621259743214300,14.39121435546875,0.0361185073852539,-0.0088000409305095,0.0014170072972774,14.39150146484375,0.0006108652451075,0.0,0.0,-0.010459367930889096,-0.008722338825464221,0.035163688659667944,-1.1641519866156802e-11,-0.0009773844038135997,0.00024434609804299977
1767621259783366700,14.43136669921875,0.0265417098999023,-0.0065280050039291,-0.0058881230652332,14.431653076171877,0.0,-0.0006108652451075,0.0030543261673301,-0.007979994267225237,-0.00915567278861994,0.034204101562499964,0.0004886921844445201,-0.0007330382941290396,0.0004886922077275598
1767621259823454500,14.471454345703124,0.0361213684082031,-0.011965949088335,-0.018297005444765,14.471745849609375,-0.0006108652451075,-0.0024434609804302,-0.0006108652451075,-0.006031575798988317,-0.007694693654775581,0.03372325897216792,0.00048869218444452,-0.0009773843921720596,0.0001221730606630398
1767621259863569700,14.511569580078126,0.0361156463623046,-0.0020206086337566,0.0025179386138916,14.511861572265625,0.0018325957935303,-0.0006108652451075,0.0012217304902151,-0.007897918671369518,-0.009119176864623981,0.030369567871093694,0.00012217302573846005,-0.0013439035508781196,-0.00024434608640148015
1767621259903683800,14.551683837890623,0.0337190628051757,-0.0091588646173477,-0.0099076963961124,14.551975341796876,-0.0012217304902151,-0.0012217304902151,-0.0012217304902151,-0.004064133763313277,-0.00899455025792118,0.03371887207031244,-0.00024434610968453993,-0.0013439035508781196,-0.0006108652451075402
1767621259943793200,14.591793212890623,0.0193500518798828,-0.0159224569797515,-0.0079147070646286,14.5920849609375,-0.0012217304902151,-0.0018325957935303,-0.0018325957935303,0.0012318033725023229,-0.004415073245763761,0.03180027008056634,-1.1641539945581036e-11,-0.0007330383057705796,-0.0009773843921720802
1767621259963841800,14.611841796875,0.043288230895996,-0.0059048719704151,0.013280801475048,14.61217919921875,-0.0018325957935303,-0.0006108652451075,0.0012217304902151,-0.001010594889521597,-0.00426638051867482,0.03036174774169916,-0.00061086526839062,-0.0008552113547920997,-0.0014660765998996401
1767621260064115000,14.712114990234374,0.0265283584594726,0.0109314359724521,0.008182680234313,14.712406982421877,-0.0024434609804302,0.0006108652451075,0.0006108652451075,-0.003194403275847436,-0.00643821023404594,0.028444290161132757,-0.00073303832905366,-0.0009773844154551397,-0.0014660765998996401
1767621260104224300,14.752224365234374,0.0289230346679687,-0.0012771449983119,-0.008694052696228,14.7525166015625,-0.0006108652451075,-0.0012217304902151,-0.0018325957935303,-0.004870939627289757,-0.0028680432587861807,0.03179435729980462,-1.1641539945581036e-11,-0.00036651915870605973,-0.00109955745283512
1767621260124275500,14.772275390625,0.0241317749023437,-0.0200180131942033,-0.0208267383277416,14.7726123046875,-0.0012217304902151,-0.0018325957935303,-0.0018325957935303,-0.008451728150248496,-0.0032387588173150806,0.03035659790039056,-0.00024434610968455993,-0.0006108652683906197,-0.0009773843921720802
1767621260144339200,14.792339111328126,0.0361003875732421,0.0019283778965473,-0.0162973888218402,14.792644775390626,0.0006108652451075,0.0012217304902151,0.0018325957935303,-0.012990764528512916,-0.008913633599877322,0.029876327514648377,-0.00048869220772756,-0.0008552113664336197,-0.0009773843921720802
1767621260224567600,14.872567626953124,0.0360994338989257,-0.0077584497630596,-0.0046231411397457,14.872859375,-0.0012217304902151,-0.0018325957935303,0.0,-0.008486853167414637,-0.009762450680136661,0.0293960571289062,-0.00024434609804299993,-0.0009773844270966597,-0.0006108652451075603
1767621260304787000,14.952786865234376,0.0241270065307617,-0.0174429379403591,-0.0145125016570091,14.953078857421875,-0.0024434609804302,-0.0006108652451075,-0.0006108652451075,-0.008793304488062818,-0.00921351686120032,0.0337041854858398,-0.00036651913542297984,-0.0007330383174120997,-0.0004886921960860402
1767621260344905700,14.99290576171875,0.0265216827392578,-0.0055212303996086,0.0138255041092634,14.99319775390625,0.0012217304902151,-0.0018325957935303,-0.0006108652451075,-0.009053012356162038,-0.011027090251445739,0.0341814041137695,-0.0001221730606630199,-0.0007330383174120996,-0.0007330382941290401
1767621260364958500,15.01295849609375,0.0456724166870117,-0.0172733440995216,-0.0223589949309825,15.01329638671875,-0.0006108652451075,-0.0006108652451075,-0.0024434609804302,-0.010111336037516558,-0.01157261952757832,0.03705444335937498,-0.0003665191587060399,-0.00024434610968453966,-0.00024434609804300025
1767621260385022700,15.033022705078125,0.0384864807128906,-0.0071394890546798,-0.0175959281623363,15.03331396484375,-0.0006108652451075,0.0012217304902151,0.0030543261673301,-0.011079545691609337,-0.00826574042439456,0.03849143981933592,-0.0007330383057705798,-0.0004886922193690997,0.00036651914706453974
1767621260425138200,15.07313818359375,0.0504646301269531,-0.0104860961437225,-0.0099147595465183,15.073429443359377,0.0012217304902151,0.0006108652451075,-0.0012217304902151,-0.014847338944673476,-0.004799355566501582,0.038011932373046856,-0.00036651915870605984,-0.0001221730606630397,-0.0002443461096845403
1767621260465256700,15.113256591796874,0.0313119888305664,-0.0009085424244403,-0.019353549927473,15.113548828125,0.0006108652451075,-0.0018325957935303,-0.0024434609804302,-0.007068316638469657,-0.0052551712840795215,0.0341815948486328,0.000366519135423,-1.1641539685372514e-11,-0.0004886922193691002
1767621260545473800,15.193473876953124,0.0241241455078125,0.0118106938898563,-0.0050134621560573,15.19376611328125,-0.0018325957935303,0.0,0.0012217304902151,-0.006911848485469776,-0.0033213604241609405,0.03322448730468748,4.336808689942018e-20,-0.00024434610968455966,-0.0004886922193691002
1767621260565529600,15.213529541015625,0.0265207290649414,-0.0195524226874113,0.0165361166000366,15.19376611328125,-0.0018325957935303,0.0,0.0012217304902151,-0.008325076103210396,-0.0049991168081760205,0.031307983398437475,0.00012217304902152002,-0.0004886922077275596,-0.0012217305134981603
1767621260625713000,15.273712890625,0.033700942993164,0.0025295652449131,-0.0168135873973369,15.274005859375,-0.0006108652451075,0.0,0.0012217304902151,-0.004029520601034137,-0.005597125738859161,0.03274250030517576,0.00036651914706453995,3.4694469519536144e-19,-0.0015882496605626802
1767621260665828600,15.31382861328125,0.0408821105957031,-0.0188748780637979,-0.0169808976352214,15.31412060546875,-0.0024434609804302,-0.0006108652451075,-0.0006108652451075,-0.006410286575555778,-0.009215552359819381,0.03609352111816404,-0.00024434610968453993,-0.0004886921960860396,-0.0010995574528351205
1767621260705942000,15.35394189453125,0.0384845733642578,-0.003898587077856,0.0021242275834083,15.35423388671875,-0.0012217304902151,0.0006108652451075,-0.0012217304902151,-0.014079798758029899,-0.0065123256295919005,0.03896484374999996,-0.00048869220772756,-0.0004886921960860396,-0.0010995574528351202
1767621260746042000,15.3940419921875,0.0408792495727539,-0.0062814392149448,-0.0169172920286655,15.394334228515625,0.0006108652451075,-0.0024434609804302,-0.0018325957935303,-0.014099583029746976,-0.00534550733864304,0.039442634582519495,-0.00061086525674908,-0.00036651914706453963,-0.0009773844038136203
1767621260786151000,15.43415087890625,0.040877342224121,-0.0060362890362739,-0.021811444312334,15.43444287109375,-0.0018325957935303,0.0,0.0,-0.009273419156670558,-0.0037526048719882603,0.03704776763916012,-0.0004886922077275799,-0.00012217304902153965,-0.0003665191587060803
1767621260806202000,15.4542021484375,0.0360898971557617,0.0083636566996574,-0.0169125087559223,15.45454345703125,0.0,0.0006108652451075,0.0006108652451075,-0.011069430783390958,-0.0032397761940955805,0.034653854370117136,-1.1641539945581036e-11,-0.00012217304902153965,-0.0001221730606630603
1767621260826264000,15.47426416015625,0.0289077758789062,-0.010910365730524,0.0071499217301607,15.474551025390625,0.0006108652451075,0.0006108652451075,0.0,-0.013757315650582278,-0.0015171095728874005,0.03274021148681636,0.0007330383057705802,0.0006108652451075204,-0.0003665191587060603
1767621260866370000,15.5143701171875,0.0265150070190429,-0.0013344436883926,-0.0068558305501937,15.514656982421876,0.0,0.0006108652451075,0.0012217304902151,-0.009182694181799875,-0.0018250308930873606,0.03226394653320308,0.0008552113547920801,0.00012217304902148034,0.0002443460980430197
1767621260906468400,15.55446826171875,0.03131103515625,0.0023318938910961,-0.0303567163646221,15.5547607421875,-0.0006108652451075,0.0012217304902151,0.0018325957935303,-0.009018265828490236,-0.0031165711581706804,0.03274497985839838,0.00109955746447664,-1.964574336543734e-17,0.00012217304902151972
1767621260926520600,15.5745205078125,0.0384960174560546,-0.0075758956372737,0.001061663031578,15.574857177734376,0.0012217304902151,-0.0024434609804302,0.0006108652451075,-0.012241560965776416,-0.00545098930597304,0.0322687149047851,0.0012217305134981401,-0.00012217304902151964,-0.00024434609804300025
1767621260946579200,15.5945791015625,0.0384950637817382,0.0019059553742408,-0.0160903669893741,15.594871337890623,-0.0006108652451075,0.0,0.0018325957935303,-0.016944804042577716,-0.00683599039912222,0.03322887420654292,0.00171042273286724,-0.00024434609804301966,-0.0009773844154551202
1767621260986683000,15.634682861328123,0.0265264511108398,-0.0225824564695358,-0.0089665539562702,15.634974609375,-0.0012217304902151,0.0,0.0006108652451075,-0.011070482432842216,-0.005660082399845121,0.03179397583007806,0.0010995574761181602,-0.0007330382941290595,-0.0009773844154551204
1767621261006733000,15.654733154296874,0.031315803527832,-0.0082594491541385,-0.0303720459342002,15.655070068359375,-0.0036651915870606,0.0,0.0036651915870606,-0.008630326390266377,-0.0054237365722656205,0.032752990722656194,0.00122173052513968,-0.00012217304902151964,-0.0014660766115411603
1767621261066917000,15.714917236328125,0.0241365432739257,0.0082114338874816,-0.0009851083159446,15.71520849609375,-0.0006108652451075,-0.0012217304902151,-0.0012217304902151,-0.006051261723041498,-0.008643089234828922,0.03227672576904292,0.0006108652683906,-0.00024434609804301966,-0.0008552113664336202
1767621261107040500,15.75504052734375,0.0432910919189453,-0.0063941664993762,0.0132624432444572,15.75533251953125,-0.0012217304902151,0.0006108652451075,0.0012217304902151,-0.004439909011125518,-0.00456468760967252,0.03419399261474604,0.0004886922193691001,-0.0003665191470645196,-0.0003665191703475803
1767621261147167500,15.79516748046875,0.0361137390136718,-0.0141908079385757,-0.0031950436532497,15.795459228515623,0.0024434609804302,-0.0006108652451075,-0.0012217304902151,-0.0029609769582747978,-0.0028112947940826406,0.03371601104736322,-0.0002443460980430199,-0.0004886921960860196,0.0004886921960860398
1767621261187296000,15.8352958984375,0.0361127853393554,-0.0021904483437538,-0.0009097903966903,15.835587890625,0.0012217304902151,-0.0006108652451075,0.0,-0.0021054275333881175,-0.00575907751917836,0.03371601104736322,0.0003665191587060601,2.0339632755828063e-17,0.0003665191470645197
1767621261267548000,15.9155478515625,0.0289258956909179,0.0005075149238109,-0.0229773856699466,15.915840087890626,0.0006108652451075,-0.0006108652451075,0.0,-0.003966207057237598,-0.00918228477239606,0.030364799499511663,0.00012217306066304013,0.00024434610968458037,0.0003665191470645197
1767621261307674000,15.955674072265625,0.0241365432739257,-0.006527479737997,0.0032926388084888,15.95596533203125,-0.0012217304902151,0.0012217304902151,0.0018325957935303,-0.004881587624549838,-0.00849002450704572,0.03323688507080071,0.0003665191587060601,0.0006108652567491003,-0.0002443460980430202
1767621261347802600,15.995802734375,0.0265350341796875,-0.0235102027654647,0.0039585456252098,15.99609423828125,-0.0012217304902151,0.0018325957935303,0.0,-0.005718810111284238,-0.00970511883497234,0.0332361221313476,0.0002443461096845601,0.0004886922077275804,-0.0003665191470645402
1767621261387925000,16.035925048828126,0.0504741668701171,-0.010729506611824,-0.0077719464898109,16.036216796875,-0.0006108652451075,0.0012217304902151,0.0,-0.0036150358617305575,-0.01094285100698464,0.03658771514892571,0.0003665191587060601,0.0006108652567490804,-0.0004886921960860402
1767621261407981800,16.05598193359375,0.0361089706420898,-0.0082659199833869,-0.0050959028303623,16.056319091796876,0.0006108652451075,-0.0012217304902151,-0.0006108652451075,-0.002927855402231198,-0.01220749989151948,0.0375452041625976,0.0002443460980430201,0.0006108652567490804,-0.0002443460980430202
1767621261428044300,16.076044189453125,0.0456838607788085,-0.0056811459362506,-0.0124585144221782,16.076336669921876,0.0,0.0,0.0006108652451075,-0.007032263278961158,-0.0105121567845344,0.038023376464843675,0.00061086525674908,0.00012217304902152035,0.00024434609804301977
1767621261468189000,16.11618896484375,0.0289239883422851,-0.0128507241606712,0.0067285411059856,16.116480712890624,0.0,0.0012217304902151,0.0012217304902151,-0.0031375907361507376,-0.009474254399537979,0.034192466735839776,0.00048869220772758,-0.0003665191470645196,0.00024434609804301977
1767621261508298800,16.156298828125,0.0289258956909179,-0.0150334872305393,-0.01656349375844,16.156590576171876,0.0012217304902151,-0.0006108652451075,0.0018325957935303,-0.0022441372275352383,-0.009958919137716241,0.03131923675537102,0.0008552113547921,-0.00012217304902149964,-0.0001221730490215002
1767621261548415200,16.196415283203127,0.0313196182250976,-0.0055399946868419,0.0117014162242412,16.196707275390626,-0.0006108652451075,-0.0012217304902151,-0.0006108652451075,-0.0008401513099670377,-0.01099900230765338,0.029404258728027276,0.0008552113547921,3.4694469519536144e-19,-0.0003665191470645202
1767621261588566500,16.23656640625,0.021742820739746,-0.0106892436742782,-0.0006286352872848,16.236858642578124,-0.0012217304902151,0.0,0.0012217304902151,-0.0023647546768188173,-0.01162958145141596,0.03179912567138666,0.0009773844154551399,3.4694469519536144e-19,-0.0003665191470645202
1767621261628693200,16.276693359375,0.0361089706420898,-0.0108815617859363,-0.0054385848343372,16.27698486328125,-0.0012217304902151,0.0006108652451075,0.0006108652451075,0.0017780564725399226,-0.00852652713656422,0.03227863311767572,0.00061086525674908,-0.00012217304902151964,-0.0007330382941290401
1767621261668815400,16.3168154296875,0.040898323059082,-0.0160036198794841,-0.0008944757282733,16.317107666015627,0.0,0.0012217304902151,0.0018325957935303,-0.004010619223117777,-0.010710158944129921,0.03084316253662104,0.0009773844038136002,0.00012217304902150034,-0.0006108652451075402
1767621261708970800,16.356970703125,0.0313234329223632,0.0004817843437194,0.0041505619883537,16.35726318359375,-0.0006108652451075,-0.0012217304902151,0.0,-0.007338517159223498,-0.01385381296277044,0.03563308715820308,0.00061086525674908,-0.00024434610968455966,-0.0006108652451075402
1767621261749096200,16.39709619140625,0.0241422653198242,-0.0164581537246704,-0.0172419622540473,16.397387451171873,0.0,0.0,0.0012217304902151,-0.006387384980916918,-0.011099535971879963,0.034675979614257765,0.00048869220772758,-0.0001221730606630397,-0.0003665191470645202
1767621261789218300,16.43721826171875,0.0456924438476562,-0.0264075137674808,-0.0172681249678134,16.437510498046876,-0.0012217304902151,-0.0018325957935303,-0.0006108652451075,-0.007200478762388178,-0.01061351820826532,0.033239746093749946,2.007942423443154e-17,-0.0001221730606630397,-0.0002443460980430202
1767621261829340200,16.477340087890624,0.0313234329223632,0.0028898231685161,-0.0006829239428043,16.47763232421875,0.0,0.0012217304902151,0.0,-0.012215271592140139,-0.01152431070804594,0.03611354827880854,-0.0001221730490214799,0.0002443460864014803,-2.0209528495129803e-17
1767621261869461200,16.517461181640623,0.0337171554565429,-0.0135735310614109,-0.0049599446356296,16.517753173828126,0.0006108652451075,0.0012217304902151,-0.0006108652451075,-0.011056941002607297,-0.013080198317766162,0.036115074157714776,-0.0003665191470644999,0.0001221730373799803,-0.0002443460980430402
1767621261909585200,16.557585205078126,0.0456924438476562,-0.0040721781551837,-0.0209234021604061,16.557872314453125,0.0006108652451075,0.0006108652451075,-0.0006108652451075,-0.009413008391857117,-0.01115077063441274,0.034200477600097604,0.0001221730606630601,0.0006108652451075403,-2.0209528495129803e-17
1767621261989836000,16.6378359375,0.0241498947143554,-0.0242375917732715,-0.0114503093063831,16.638128173828125,-0.0012217304902151,-0.0006108652451075,0.0,-0.007705643028020838,-0.009949766099452941,0.03468151092529292,0.0004886922193691201,0.00012217304902150034,-0.0006108652334660402
1767621262029962000,16.6779619140625,0.0361194610595703,-0.0167603753507137,-0.0090484619140625,16.678254150390625,0.0,0.0006108652451075,0.0018325957935303,-0.009069252759218197,-0.009334315359592399,0.03468360900878902,0.0008552113664336402,0.00012217304902150034,-0.0010995574411936002
1767621262070089700,16.71808984375,0.0337285995483398,0.0088948458433151,0.0078539028763771,16.718382080078126,-0.0030543261673301,-0.0012217304902151,0.0018325957935303,-0.007578564435243578,-0.00877950042486188,0.03420696258544918,0.0015882496489211602,0.00012217304902150034,-0.0013439035392366003
1767621262110216200,16.75821630859375,0.0337276458740234,-0.0104962773621082,-0.0117779932916164,16.758508544921874,-0.0018325957935303,0.0012217304902151,0.0012217304902151,-0.004616021364927278,-0.005699777603149379,0.03468742370605466,0.00146607659989966,0.00024434609804300036,-0.0009773843921720802
1767621262150315800,16.798315673828125,0.043309211730957,-0.0012981034815311,-0.013469960540533,16.798607666015624,-0.0006108652451075,0.0006108652451075,0.0030543261673301,-0.003062499314546558,-0.00606370195746418,0.0361263275146484,0.00134390353923662,0.00024434609804300036,-0.00134390355087814
1767621262190423000,16.838423095703124,0.0265522003173828,-0.008838977664709,0.0033624060451984,16.838714599609375,0.0006108652451075,0.0,-0.0006108652451075,-0.005291289091110198,-0.00930864661931986,0.0356502532958984,0.0012217304785735802,0.0007330382941290403,-0.0006108652683906202
1767621262230537200,16.878537109375,0.043313980102539,-0.0185799971222877,-0.0012808516621589,16.87882958984375,-0.0018325957935303,0.0006108652451075,0.0012217304902151,-0.004954047501087158,-0.006318542361259419,0.03613262176513668,0.0009773843805305602,0.0007330382941290403,-0.00012217306066306018
1767621262270664700,16.918664794921874,0.0313482284545898,-0.0073298774659633,-0.0032900460064411,16.91895654296875,0.0006108652451075,0.0012217304902151,0.0012217304902151,-0.005134758353233318,-0.0114723183214664,0.03613586425781246,0.0004886921960860402,0.0007330382941290403,-0.0003665191703476202
1767621262310791400,16.95879150390625,0.0361394882202148,0.004454243928194,-0.0100917853415012,16.959083984375,0.0006108652451075,0.0012217304902151,0.0,-0.007702136039733858,-0.01029686704277988,0.039969253540039024,0.0006108652451075402,0.0004886921960860203,0.00012217301409689975
1767621262350908000,16.998907958984375,0.0433254241943359,-0.027066983282566,-0.0143735148012638,16.99919921875,-0.0018325957935303,0.0006108652451075,0.0006108652451075,-0.009413125365972498,-0.009940804541110959,0.03661880493164058,0.00036651914706452017,0.0006108652451075403,0.00036651912378145974
1767621262391021800,17.039021728515625,0.0457191467285156,-0.0029617212712764,-0.0094744823873043,17.03931298828125,0.0030543261673301,-0.0012217304902151,0.0,-0.006849091500043858,-0.011799352616071682,0.03614025115966792,0.00012217304902150018,0.00036651914706452033,0.0002443460747599598
