time,seconds_elapsed_x,accel_z,accel_y,accel_x,seconds_elapsed_y,gyro_z,gyro_y,gyro_x,accel_x_smooth,accel_y_smooth,accel_z_smooth,gyro_x_smooth,gyro_y_smooth,gyro_z_smooth
1767620467550686000,0.34368603515625,2.9257030487060547,0.2438247203826904,0.0666754245758056,0.343977294921875,0.0775798857212066,0.4795292317867279,-0.3689626157283783,,,,,,
1767620467590773800,0.383773681640625,-4.028726577758789,0.5202274322509766,-1.795278549194336,0.384065185546875,0.2272418737411499,0.5992587804794312,-0.8509352803230286,,,,,,
1767620467630898700,0.423898681640625,3.5026192665100098,-0.6352834701538086,-2.6506128311157227,0.424190185546875,0.1215621829032898,1.4691308736801147,-0.932791233062744,-0.9873536586761474,-0.08009653091430662,0.20085363388061522,-0.7346265375614166,0.5863084465265274,0.07220427207648754
1767620467711095000,0.504094970703125,-0.3352036476135254,-0.2193953990936279,0.6931333541870117,0.504387451171875,-0.0452040284872055,-0.2205223590135574,-0.6139195561408997,-1.0149938583374023,-0.31449522972106936,-0.6098777770996093,-0.7966904401779175,0.6646213740110397,0.012339476868510257
1767620467751189000,0.54418896484375,-1.0601239204406738,-0.3098559379577636,-1.250685691833496,0.54448046875,-0.0201585534960031,0.6041457056999207,-0.9065240025520324,-0.7029660224914551,-0.6815560817718506,0.28348360061645506,-0.7203322887420655,0.6416528433561325,-0.07770206220448014
1767620467771236400,0.564236328125,-1.1279540061950684,-0.928168773651123,-0.0715255737304687,0.564573974609375,-0.2217440903186798,0.8710938692092896,-0.6792821288108826,-0.144576358795166,-0.5262775897979737,-0.5685227394104004,-0.6515488624572754,0.4675562590360641,-0.14685200639069076
1767620467791293700,0.584293701171875,0.4380803108215332,-1.3150768280029297,-0.2351393699645996,0.5845859375,-0.2229658216238021,0.484416127204895,-0.4691445231437683,-0.6636182785034179,-0.8332825660705566,-0.6663688659667969,-0.6575353503227234,0.7514864325523376,-0.13487904742360113
1767620467831404300,0.624404296875,-0.7574124336242676,0.1411089897155761,0.1413354873657226,0.6246962890625,-0.2241875380277633,0.598647952079773,-0.588874101638794,-0.1512375831604004,-0.5925287246704102,-0.8163436412811279,-0.6360329031944275,0.9740857362747193,-0.04007275886833668
1767620467871512600,0.6645126953125,-0.8244342803955078,-1.754420280456543,-1.902076244354248,0.6648046875,0.0146607663482427,1.19912850856781,-0.6438519954681396,-0.17725658416748047,-0.41422557830810547,-0.4445138454437256,-0.47085494697093966,1.0021855354309082,0.045692722126841556
1767620467911605200,0.704605224609375,-1.809997797012329,0.8939132690429688,1.3112177848815918,0.70491259765625,0.4538728892803192,1.7171422243118286,-0.799011766910553,-0.33924112319946287,-0.40234832763671874,-0.5523010730743408,-0.3971845954656601,0.9745744287967681,0.11386528424918649
1767620467951710000,0.7447099609375,0.7311949729919434,-0.0366530418395996,-0.2016205787658691,0.745001708984375,0.2070833146572113,1.0115928649902344,0.1466076523065567,-0.2183712005615234,-0.5311380386352539,-0.7909706115722657,-0.3448945313692093,0.9612575590610504,0.17214182727038857
1767620467991804200,0.78480419921875,-0.1008558273315429,-1.255690574645996,-1.0450620651245115,0.785095947265625,0.1178969889879226,0.3463605940341949,-0.1007927656173706,0.07178688049316412,-0.30986757278442384,-0.8508395195007324,-0.29871311485767366,0.8255232989788055,0.18484782427549357
1767620468031903500,0.824903564453125,-1.9507601261138916,-0.5028395652770996,0.7456851005554199,0.8251953125,0.067195177078247,0.5320636034011841,-0.3274237811565399,0.06257143020629888,-0.6436739921569824,-0.5404757976531982,-0.21868976056575776,0.5524665296077729,0.03359758704900737
1767620468051937000,0.84493701171875,-1.1237788200378418,-0.6480679512023926,-0.4512858390808105,0.845273681640625,0.0781907513737678,0.5204572081565857,-0.4129449129104614,-0.15234708786010737,-1.0595723152160645,-0.8479591846466065,-0.3266907334327698,0.44507641792297364,-0.12596041709184652
1767620468071994000,0.864994140625,-0.2581791877746582,-0.7751188278198242,1.2651405334472656,0.865285400390625,-0.3023782968521118,0.351858377456665,-0.3988949954509735,0.4328719139099121,-1.6789235115051269,-0.9301935195922851,-0.3587000727653503,0.38606683537364,-0.1824043646454811
1767620468112084000,0.905083984375,-0.8062219619750977,-2.1161446571350098,-1.2762131690979004,0.905375244140625,-0.5907067060470581,0.4746423065662384,-0.3933972120285034,0.32981300354003906,-1.7729126930236816,-0.647471284866333,-0.3470936298370361,0.22711970135569573,-0.13695598989725113
1767620468352588800,1.1455888671875,-0.5120275020599365,-4.352446556091309,1.881032943725586,1.145881103515625,-0.1643227487802505,0.051312681287527,-0.2608394622802734,0.26907644271850584,-1.7240073204040527,-0.567409348487854,-0.30445523560047144,0.10335839912295341,-0.17702874988317488
1767620468392680000,1.185679931640625,-0.5371489524841309,-0.972785472869873,0.2303905487060547,1.1859716796875,0.294437050819397,-0.2626720666885376,-0.2693915665149688,-0.031123352050781244,-1.7713687896728516,-0.5818743467330932,-0.2646268248558044,0.013316863030195247,-0.14098770022392268
1767620468432775700,1.225775634765625,-0.7234691381454468,-0.403541088104248,-0.7549686431884766,1.226067626953125,-0.1221730485558509,-0.0983493030071258,-0.1997529417276382,0.5723377227783203,-1.4319231986999512,-0.43263061046600343,-0.25607471466064446,-0.16261233165860176,-0.06780604124069209
1767620468452818200,1.245818115234375,-0.3305041790008545,-1.0119261741638184,-0.2358584403991699,1.226067626953125,-0.1221730485558509,-0.0983493030071258,-0.1997529417276382,-0.04385509490966801,-0.7902722358703613,-0.6055583715438843,-0.2500882357358932,-0.11801916956901545,-0.17825047671794886
1767620468472880600,1.265880615234375,-0.0600032806396484,-0.4189167022705078,1.7410922050476074,1.2661728515625,-0.2247984111309051,-0.4050036668777466,-0.3506366610527038,-0.49252853393554685,0.03467750549316406,-0.28771443367004396,-0.22663101255893703,-0.06072000749409197,-0.38887681663036344
1767620468553052200,1.34605224609375,-1.3766663074493408,-1.1441917419433594,-1.1999311447143557,1.346344482421875,-0.7165449261665344,0.2742784917354584,-0.230907067656517,-0.9204151153564453,0.1404706001281738,0.10501775741577149,-0.38374555110931396,-0.3316998232156038,-0.5312084212899209
1767620468593143000,1.38614306640625,1.0520707368850708,3.151963233947754,-2.01297664642334,1.38643505859375,-0.7586946487426758,0.0238237436860799,-0.152105450630188,-1.232846999168396,0.45662784576416016,-0.18582668304443364,-0.39498547017574304,-0.39755109436810016,-0.5495343774557113
1767620468833750000,1.62675,1.2401918172836304,0.1254243850708007,-2.8944015502929688,1.62704150390625,-0.8338310718536377,-1.453248381614685,-0.9853256344795228,-1.4937220811843872,0.49155330657958984,-0.29847269058227544,-0.3291341945528984,-0.4296825993806124,-0.5338962256908417
1767620468913920500,1.70692041015625,-1.78472638130188,0.5688600540161133,-1.7980178594589231,1.707211669921875,-0.2138028293848037,-0.4276056587696075,-0.2559525370597839,-1.0979241728782654,0.8273283004760742,-0.08075768947601322,-0.29028316363692286,-0.5520999956876039,-0.41746531128883363
1767620468954000100,1.747000244140625,-0.6232333183288574,-0.2442893981933593,0.4367167949676513,1.747291748046875,-0.1466076523065567,-0.5656611919403076,-0.0213802829384803,-0.5956034779548645,0.7545087814331055,-0.5275341987609863,-0.21551325544714928,-0.8247902452945709,-0.3134960442781448
1767620468994088700,1.787088623046875,-0.2880913019180298,0.5346832275390625,0.7790583968162537,1.787379150390625,-0.1343903541564941,-0.3378084897994995,-0.0366519130766391,0.46422399282455445,0.43626976013183594,-0.6926666975021363,0.19779816642403605,-0.5715255230665207,-0.13939944729208945
1767620469034189800,1.82718994140625,-1.181811809539795,2.78786563873291,0.4986268281936645,1.8274814453125,-0.2388483136892318,-1.3396275043487549,0.2217440903186798,0.7354699671268463,0.07239036560058594,0.06190268993377686,0.5986479498445988,-0.6130643635988235,-0.02748893424868585
1767620469274779000,2.06777880859375,0.4145293235778808,-1.4657707214355469,2.404735803604126,2.0680703125,0.0366519130766391,-0.1869247704744339,1.0812314748764038,0.9485430538654327,-0.09093551635742188,0.46466009616851806,0.9721309594810009,-0.5375614255666733,0.08710938468575476
1767620469314859500,2.107859619140625,1.9881205558776855,-1.2505369186401367,-0.441787987947464,2.10815087890625,0.3457497358322143,-0.6352998614311218,1.7482963800430298,1.1257040441036223,-0.17416782379150392,-0.10064492225646973,1.354288250207901,-0.6675535529851914,0.10348057299852371
1767620469354943200,2.147943115234375,1.3905537128448486,-1.0609188079833984,1.5020822286605835,2.14823486328125,0.4263839423656463,-0.1881465017795562,1.8460347652435305,1.0617184102535249,-0.43920106887817384,-0.5498939990997315,1.4735291481018067,-0.5297423452138901,0.1108109578490257
1767620469395040500,2.18804052734375,-3.1146163940429688,0.1185216903686523,1.664863348007202,2.188331787109375,-0.0525344125926494,-0.9877691268920898,1.874134540557861,0.5445118397474288,0.046595096588134696,-1.229574728012085,1.2691336385905743,-0.5604077816009522,0.11594222635030745
1767620469435115300,2.228115234375,-3.4280571937561035,1.4626994132995603,0.1786986589431762,2.22840673828125,-0.2021963894367218,-0.6505714654922485,0.817948579788208,0.7947714239358902,0.5205496788024901,-2.0487034797668455,0.7993782512843609,-0.43945646174252034,0.104091440141201
1767620469475190500,2.2681904296875,-2.9838743209838867,0.963210105895996,-0.1812970489263534,2.26848193359375,0.0623082555830478,-0.3402519524097442,0.0592539273202419,0.381685534119606,1.1470096588134766,-2.555358076095581,0.2397035114467144,-0.4105014476925134,0.11252137869596479
1767620469515288000,2.3082880859375,-2.107523202896118,1.1192359924316406,0.8095099329948425,2.30858056640625,0.2864958047866821,-0.0305432621389627,-0.6004805564880371,0.0858010947704315,1.5513881683349608,-2.0377591609954835,-0.32840116098523137,-0.23872613646090027,0.21893410757184023
1767620469555385600,2.348385498046875,-1.142719268798828,2.071381092071533,-0.5633472204208374,2.348677734375,0.4685336351394653,-0.0433714315295219,-0.952338933944702,0.3482785165309906,1.3992506980895996,-1.2157955169677734,-0.7132462747395039,-0.0547335300594568,0.29517008736729616
1767620469595459800,2.3884599609375,-0.5266218185424805,2.140414237976074,0.1854411512613296,2.38875146484375,0.4795292317867279,-0.128892570734024,-0.9663888216018676,0.3467810541391373,1.31698637008667,-0.49780898094177245,-0.9125105142593384,0.0557109083980322,0.27452284172177316
1767620469635577900,2.428577880859375,0.6817610263824463,0.7020120620727539,1.4910857677459717,2.42886962890625,0.1789835095405578,0.2693915665149688,-1.1062769889831543,0.1198857516050339,1.4826720237731932,0.006141376495361372,-0.8837998449802399,0.07696901857852936,0.23982569500803946
1767620469675662000,2.468662109375,0.6060583591461182,0.5518884658813477,-0.1887843608856201,2.4689541015625,-0.0409279726445674,0.2119702398777008,-0.9370672702789308,0.24557243436574935,1.2444602966308593,0.4427796840667725,-0.7721336722373963,0.14538592845201492,0.18961257264018058
1767620469715771600,2.508771728515625,0.4122285842895508,1.9476642608642576,-0.3249665796756744,2.5090634765625,0.1130100712180137,0.0757472887635231,-0.4569272100925445,0.008184225857257888,1.2179598808288574,0.6041961193084717,-0.64421848654747,0.21905627697706218,0.1279151789844036
1767620469755880700,2.548880615234375,1.0404722690582275,0.8803224563598633,0.06508619338274,2.54917236328125,0.2174680233001709,0.2987131178379059,-0.394008070230484,-0.42808706015348436,1.2751376152038574,0.4491030216217041,-0.5297423303127289,0.17201965451240536,0.10311405137181281
1767620469795990300,2.588990234375,0.2804603576660156,2.0079121589660645,-1.001499891281128,2.58928173828125,0.171042263507843,0.2394591718912124,-0.3268128931522369,-0.5292931720614433,1.2355233192443849,0.4608173847198486,-0.47940704226493835,0.06414085030555725,0.121195662766695
1767620469836095200,2.62909521484375,-0.0937044620513916,0.987900733947754,-0.6902706623077393,2.6293876953125,0.0549778714776039,0.0342084541916847,-0.5338962078094482,-0.3604820236563682,1.0250021934509277,0.5532809734344483,-0.47733010053634645,-0.055344392359256755,0.12938125655055044
1767620469876209700,2.669209716796875,0.6646301746368408,0.3538169860839844,-0.694814920425415,2.66950146484375,0.0494800843298435,-0.3274237811565399,-0.685390830039978,-0.05053566694259639,0.2247380256652832,0.3476372718811035,-0.37812558710575106,-0.18570304065942764,0.13866640850901601
1767620469916313900,2.70931396484375,0.8745465278625488,0.8950586318969727,0.5190891623497009,2.70960546875,0.1539380401372909,-0.5216789245605469,-0.4465425014495849,0.7361669182777405,-1.1859975814819337,0.15350782871246338,-0.29236010909080506,-0.30421089977025983,0.15723671242594717
1767620469956422000,2.749421875,0.0122537612915039,-3.1209983825683594,1.6148179769515991,2.74971337890625,0.2638937830924988,-0.3530801236629486,0.1020144969224929,0.19488826990127564,-2.5096763610839843,-0.10342018604278565,0.11765263676643371,-0.23909266591072081,0.13072516098618508
1767620469976457700,2.769457763671875,-0.6901868581771851,-5.0457658767700195,2.9320130348205566,2.74971337890625,0.2638937830924988,-0.3530801236629486,0.1020144969224929,0.02662967443466182,-3.0778759002685545,-0.9334879159927368,0.3086091160774231,-0.09443977475166322,0.11435397267341614
1767620470036591900,2.829591796875,-1.3783445358276367,-5.6304931640625,-3.3966639041900635,2.829883544921875,-0.0775798857212066,0.3597996234893799,1.5161675214767456,0.06194072961807247,-3.303427505493164,-1.3296135187149047,0.23176226615905762,-0.0051312744617462245,0.1288925647735596
1767620470096717000,2.889717041015625,-3.485708475112915,-2.487180709838867,-1.536107897758484,2.8699697265625,-0.0323758572340011,0.3958406746387481,0.2693915665149688,-0.32036645412445075,-2.580829620361328,-1.5130025386810302,0.015393790602684022,0.04398229420185089,0.09162978529930116
1767620470156842000,2.949842041015625,-1.106081485748291,-0.2326993942260742,0.6956444382667542,2.9501337890625,0.2266310006380081,-0.0751364231109619,-0.8307767510414124,-1.0655813813209534,-1.304844856262207,-1.3804105520248413,-0.22296581864356996,0.06976081132888795,0.041294489614665496
1767620470196927500,2.989927490234375,-0.9046913385391236,0.4919910430908203,-0.2967179417610168,2.990218994140625,0.0775798857212066,-0.107512280344963,-0.979827880859375,-0.6155286431312561,0.2110440254211426,-0.9317034244537353,-0.677693909406662,-0.12119566202163697,0.05888740867376324
1767620470237032400,3.030032470703125,-0.0272269248962402,1.334157943725586,-0.7940616011619568,3.03032470703125,0.0122173046693205,-0.2241875380277633,-1.0897835493087769,-0.3661236643791198,0.8098444938659668,0.30128207206726076,-0.7838622868061066,-0.3089756429195404,0.07550294324755664
1767620470277155600,3.070155517578125,0.8651911020278931,1.948951244354248,-1.1464002132415771,3.070447021484375,0.0103847095742821,-0.5949827432632446,-0.7574729323387146,-0.32134190797805784,1.1184893608093263,0.738153076171875,-0.5599190831184387,-0.3308446198701859,0.046425759047269755
1767620470317276200,3.110276123046875,2.6792190074920654,0.5068216323852539,-0.2890830039978027,3.110567626953125,0.0507018156349659,-0.543059229850769,-0.261450320482254,-0.1744530320167541,1.3157065391540528,0.7816089391708374,-0.27977627515792847,-0.3053104531019926,0.027244590595364538
1767620470357393200,3.15039306640625,1.0782735347747805,1.3105249404907229,0.9195532202720642,3.150685302734375,0.0812450796365737,-0.1844813078641891,0.2889392673969269,-0.0918314099311828,0.9236403465270996,0.6967291355133056,0.04911355972290039,-0.2291966449469328,0.028588494099676575
1767620470397494800,3.190494873046875,-0.6874120235443115,1.4780769348144531,0.4377264380455017,3.190786376953125,-0.0183259565383195,0.0201585534960031,0.4208861589431762,-7.15494155883345e-05,0.8702110290527344,0.36543796062469486,0.3254690051078796,-0.07354818098247055,-0.011362094432115565
1767620470437590300,3.23059033203125,-0.4516259431838989,-0.6261730194091797,-0.3809534907341003,3.230882080078125,0.0189368221908807,0.1563815027475357,0.5546656250953674,0.015267312526702919,1.0863981246948242,-0.12546832561492915,0.5296201646327973,0.06707300432026382,-0.06780604273080826
1767620470477680600,3.2706806640625,-0.7912647724151611,1.681804656982422,-0.6876009106636047,3.27097216796875,-0.1893682330846786,0.1832595765590667,0.6243042945861816,-0.17931313514709468,0.860540771484375,-0.48324358463287354,0.57470201253891,0.12082914598286147,-0.09590584412217137
1767620470517764900,3.310764892578125,0.2246875762939453,1.5877571105957031,-0.2123886942863464,3.31105615234375,-0.2315179258584976,0.1600466966629028,0.759305477142334,-0.42528074979782104,0.7713729858398438,-0.5554096698760986,0.5885075688362121,0.16823228597640988,-0.0844215776771307
1767620470557862100,3.350862060546875,-0.7106027603149414,0.1812381744384765,-0.0533490180969238,3.351154296875,-0.0592539273202419,0.0842994004487991,0.5143485069274902,-0.49228969812393186,1.3490461349487304,-0.8077253341674805,0.5627290606498718,0.1926668971776962,-0.09309586398303506
1767620470597966000,3.390966064453125,-1.048242449760437,1.0322380065917969,-0.7921116352081299,3.391257568359375,0.0390953756868839,0.2571742534637451,0.4899139404296875,-0.5742031574249268,1.2670615196228028,-0.7959666728973389,0.48857001662254335,0.20231856703758236,-0.07513642422854898
1767620470638066200,3.431066162109375,-1.713204264640808,2.262192726135254,-0.7159982323646545,3.431357421875,-0.0244346093386411,0.2785545587539673,0.4257730841636657,-0.600494909286499,1.2575297355651855,-0.9012136459350586,0.4102570950984955,0.18692476302385325,-0.03469714559614657
1767620470678195200,3.4711953125,-0.7324714660644531,1.2718815803527832,-1.097168207168579,3.471486572265625,-0.0995710343122482,0.2315179258584976,0.2535090744495392,-0.9163408756256104,0.20186090469360352,-0.4621742725372314,0.5787337243556976,0.09932668656110759,0.01869247741997243
1767620470718313200,3.511313232421875,-0.3015472888946533,1.5400981903076172,-0.3438474535942077,3.51160498046875,-0.0293215326964855,0.0830776765942573,0.3677408695220947,-0.2939592838287354,-1.197996234893799,-0.22585151195526124,0.8748811900615692,-0.17861699610948567,0.07110471837222576
1767620470758420000,3.551419921875,1.4845941066741943,-5.097105979919434,-1.6325788497924805,3.551711669921875,0.2076941877603531,-0.3536909818649292,1.356731653213501,-0.47931383848190307,-1.974289608001709,-0.08559589385986328,0.9713978946208954,-0.3854559734463692,0.03090978637337686
1767620470838630000,3.6316298828125,0.133371353149414,-5.967047691345215,2.319796323776245,3.6319208984375,0.3011565804481506,-1.1325441598892212,1.9706512689590456,0.0732545256614685,-2.3135623931884766,-0.4054081916809082,0.8872206628322601,-0.5104390010237694,0.08454375341534613
1767620470878713300,3.67171337890625,-1.0119261741638184,-1.6192741394042969,-1.6427710056304932,3.67200537109375,-0.2254092693328857,-0.7556403279304504,0.9083566069602966,0.20242219567298889,-2.7533703804016114,-0.9111852169036865,0.6685309112071992,-0.6780604243278503,0.13707816600799558
1767620470918835200,3.711835205078125,-2.3315329551696777,-0.4244823455810547,1.6656736135482788,3.712127197265625,0.1685988008975982,-0.3933972120285034,-0.167377084493637,0.8839315950870514,-0.9860522270202636,-2.168947219848633,0.16798793673515328,-0.7294952750205994,0.12828170657157895
1767620470958932500,3.751932373046875,-2.830432415008545,-0.6589417457580566,0.3019908964633941,3.752224365234375,0.2333505302667617,-0.7550294399261475,-0.7257078886032104,0.7024135410785675,1.1463528633117677,-2.8024054527282716,-0.5707924902439118,-0.4448320746421814,0.06047566160559652
1767620470999037700,3.79203759765625,-4.804215908050537,3.7394847869873047,1.774968147277832,3.79232958984375,0.1637118905782699,-0.6108652353286743,-1.1459832191467283,1.1822094380855561,2.3859304428100585,-3.1158077716827393,-1.1320554673671723,-0.18008307218551636,0.0806342132389545
1767620471039137500,3.832137451171875,-3.0339198112487793,4.694977760314941,1.4122060537338257,3.832428955078125,-0.0378736443817615,0.2907718420028686,-1.7232508659362793,0.6926091134548187,3.1954594612121583,-3.1311927318572996,-1.5070045709609985,0.03481931686401367,0.02394591942429542
1767620471059218400,3.852218505859375,-2.5789377689361572,4.578613758087158,0.7562084794044495,3.85255517578125,-0.1246165111660957,0.5681046843528748,-1.897958278656006,0.48574047088623046,3.529745674133301,-2.73596248626709,-1.7294816970825195,0.31386256217956543,-0.04324925914406774
1767620471079271700,3.872271728515625,-2.4084577560424805,3.6231627464294434,-0.7823280096054077,3.87256298828125,-0.1148426681756973,0.6811147332191467,-2.042122602462769,0.20815749168395997,2.710173225402832,-1.6068313598632813,-1.6903863191604613,0.541837465763092,-0.08662069216370578
1767620471119355100,3.912355224609375,-0.8542811870574951,1.0124893188476562,-0.7323523163795471,3.912646728515625,-0.1026253625750541,0.6401867866516113,-1.8380935192108152,-0.041664701700210575,2.111805248260498,-0.6850718021392822,-1.4152526080608367,0.6030461668968201,-0.08539896160364147
1767620471159475500,3.952475341796875,0.8414397239685059,-0.358377456665039,0.3870532512664795,3.952767333984375,-0.0531452745199203,0.5290092825889587,-0.950506329536438,-0.3635237872600555,1.4413421630859375,-0.0407050609588623,-1.0589960053563119,0.6080552577972412,-0.0368962615728378
1767620471199568600,3.992568603515625,1.5748779773712158,1.7031378746032717,0.163095086812973,3.99286083984375,-0.0317649915814399,0.5968153476715088,-0.3475823104381561,-0.26365926265716555,0.7413868904113771,0.49204530715942385,-0.7093367233872414,0.5470909118652344,0.036651915311813374
1767620471239670500,4.03267041015625,0.6428959369659424,1.2262983322143557,-0.8530869483947754,4.032962646484375,0.1178969889879226,0.5931501388549805,-0.1166752651333808,-0.1339832305908203,0.45265207290649423,0.8792576313018798,-0.4075692906975747,0.46376889050006864,0.11691961139440536
1767620471279773000,4.07277294921875,0.2552940845489502,0.1233863830566406,-0.2830053865909576,4.073064697265625,0.2528982162475586,0.3762930035591125,-0.2938261926174164,-0.08611075878143311,-0.2007483482360839,0.8301088809967041,-0.1357342556118966,0.3516140356659889,0.16334536820650097
1767620471319888600,4.112888671875,1.0817804336547852,-0.4311847686767578,-0.083972156047821,4.1131806640625,0.2987131178379059,0.2235766798257827,-0.3292563557624817,0.36592722535133354,-1.4624977111816406,-0.014803171157836914,0.015515975654125136,0.22589796781539917,0.20549506843090054
1767620471359990800,4.15299072265625,0.595695972442627,-3.6253795623779297,0.6264156103134155,4.153283203125,0.1789835095405578,-0.0317649915814399,0.4086688458919525,0.7520971119403839,-2.570603370666504,0.014198780059814453,0.19584339261054984,0.10800097836181519,0.19828685969114299
1767620471380032800,4.17303271484375,-2.6496822834014893,-4.605608940124512,2.423285007476806,4.153283203125,0.1789835095405578,-0.0317649915814399,0.4086688458919525,0.6784482717514037,-3.648604965209961,-0.8448323726654052,0.5791002511978148,0.15406021727249025,0.1618792906403541
1767620471400078800,4.193078857421875,0.7879056930541992,-4.314229965209961,1.077762484550476,4.1933701171875,0.0818559452891349,0.0036651915870606,0.7849618196487427,1.1627358555793763,-3.729729652404785,-1.698623275756836,0.8701164603233338,0.3181386168114841,0.10506882034242146
1767620471440170200,4.233170166015625,-4.039861679077148,-5.2666215896606445,-0.6512495875358582,4.2334619140625,0.0708603709936142,0.6065891981124878,1.6224581003189087,1.737466037273407,-2.8544822692871095,-2.4617231845855714,0.8698721170425413,0.4222300539724529,0.006841688975691751
1767620471460210700,4.253210693359375,-3.187174081802368,-0.8368082046508789,2.337465763092041,4.253547607421875,0.0146607663482427,1.043968677520752,1.1258246898651123,0.4451879382133484,-3.2331605911254884,-2.0606305599212646,0.723753148317337,0.43481387784704567,-0.03323106952011587
1767620471480257800,4.2732578125,-3.21980357170105,0.7508573532104492,3.5000665187835693,4.273549072265625,-0.3121521472930908,0.4886921942234039,0.4074471294879913,0.3829814314842225,-2.423467445373535,-2.509707498550415,0.39241984486579884,0.43469170476309954,-0.04605924002826215
1767620471520343300,4.31334326171875,-0.644219160079956,-6.499000549316406,-4.038105487823486,4.313635498046875,-0.0213802829384803,0.0311541277915239,-0.3219259977340698,0.25929322242736824,-1.4084949493408203,-1.8537736892700196,-0.1205847918987275,0.30396654005162416,-0.0730594839900732
1767620471560432400,4.353432373046875,-1.4574790000915527,-0.2657642364501953,0.7667299509048462,4.353723388671875,0.0177150927484035,0.0030543261673301,-0.8717046976089478,-0.11072883605957022,-0.8990672111511231,-1.1726722717285156,-0.5156924426555635,0.0697608112823218,-0.0926071725785732
1767620471600517400,4.393517333984375,-0.7601926326751709,-0.1917591094970703,-1.2696906328201294,4.39380908203125,-0.0641408488154411,-0.047036625444889,-0.9425650835037231,-0.8192076683044434,-0.5882568359375,-0.18968629837036133,-0.699318540096283,-0.0552222162950784,-0.022357667982578266
1767620471640615400,4.433615478515625,0.2183330059051513,1.7103304862976074,0.4873554706573486,4.433907958984375,-0.0830776765942573,-0.1270599663257599,-0.8497135639190674,0.12369563579559326,0.882351303100586,0.4861727714538574,-0.5944940626621247,-0.06524040629155932,-0.039217549562454226
1767620471680720400,4.473720458984375,1.6951262950897217,2.3049092292785645,-0.0423276424407959,4.474012939453125,0.0390953756868839,-0.1362229436635971,-0.5106833577156067,0.22240819931030273,1.5182929992675782,0.703047251701355,-0.2643824875354768,-0.02247983850538728,-0.11985176131129265
1767620471720829200,4.5138291015625,2.7350761890411377,0.8540401458740234,0.6764110326766968,4.514120849609375,-0.1056796908378601,-0.0189368221908807,0.2021963894367218,0.27382655143737794,2.265022373199463,0.5060213804244995,0.04740313887596122,0.07098254673182966,-0.15894713476300237
1767620471760925700,4.55392578125,-0.3731065988540649,2.9139442443847656,1.2602927684783936,4.554217529296875,-0.3854559659957886,0.2168571650981903,0.778853178024292,-0.5501110553741456,1.8443975448608398,0.22086610794067382,0.3630982935428618,0.09395107906311755,-0.1331686206161976
1767620471801049900,4.5940498046875,-1.7453219890594482,3.5418877601623535,-1.0125988721847534,4.594341796875,-0.2596177160739898,0.4202753007411957,0.6163630485534668,-0.2668574810028077,2.0496122360229494,-0.23654465675354003,0.6212499439716338,0.025900691561400936,-0.14514157958328722
1767620471841133300,4.63413330078125,-1.207443356513977,-0.3927936553955078,-3.632332563400269,4.634425048828125,0.0458148941397666,-0.0122173046693205,0.7287622094154358,-0.34997590780258186,2.260508155822754,-0.6928153514862061,0.7114136576652526,0.12302826810628179,-0.14367550201714038
1767620471881224700,4.674224609375,-0.5919275283813477,3.3309826850891113,1.3739402294158936,4.674516357421875,-0.0207694191485643,-0.4764748811721802,0.7800748944282532,-0.7039344549179078,1.6861970901489258,-0.9208269834518432,0.7227757573127745,0.16920967865735292,-0.09248499460518358
1767620471921321500,4.714321533203125,0.4537227153778076,1.9085197448730469,0.2608188986778259,4.71462890625,-0.0983493030071258,0.4667010605335235,0.6530149579048157,-0.5017061471939088,0.29232587814331057,-0.5040939092636109,0.909822690486908,0.08991936724632978,-0.011484267190098763
1767620471961441000,4.75444091796875,-1.513164758682251,0.042388916015625,-0.5094999670982361,4.754732666015625,-0.1295034289360046,0.4477642178535461,0.8356636762619019,-0.14132728576660156,-0.297395133972168,-0.19868311882019044,0.8936958551406861,0.10286971069872375,-0.028588494285941103
1767620472001542000,4.7945419921875,0.3383433818817138,-3.4274682998657227,-0.0014573335647583,4.794833740234375,0.1453859210014343,0.0238237436860799,1.5515977144241333,0.08842377662658692,-0.9004877090454102,-0.4647834300994873,0.7296174548566341,0.14001031853258608,-0.0007330395281314822
1767620472121861000,4.914861083984375,0.319610595703125,-3.3413987159729004,-1.830438256263733,4.9151533203125,-0.0397062413394451,0.0525344125926494,0.6481280326843262,0.34545732736587526,-1.235844612121582,-1.1935246944427491,0.45118507370352734,-0.03860668204724789,0.0004886902868747767
1767620472161957600,4.95495751953125,-1.922429084777832,0.3155198097229004,2.522695541381836,4.955248779296875,0.1185078546404838,-0.2907718420028686,-0.0403171069920063,0.9483545303344727,-0.6451332092285156,-1.8051630020141602,0.08295549377799025,-0.24642303250730038,-0.034452804177999494
1767620472202084000,4.995083984375,-3.189983606338501,0.2317352294921875,1.5459866523742676,4.99537548828125,-0.0922406539320945,-0.4263839423656463,-0.7391469478607178,1.2524459838867188,0.8484618186950683,-2.7108973979949953,-0.49626692309975634,-0.2899166382849216,-0.13390166386961938
1767620472242179300,5.035179443359375,-4.571356296539307,2.995945930480957,2.504986047744751,5.035471435546875,-0.304210901260376,-0.5913175344467163,-1.0054842233657837,1.7375006794929504,2.3238898277282716,-3.509203386306763,-0.9513615228235721,-0.28515188992023466,-0.1977981686592102
1767620472262256600,5.055256591796875,-4.190328598022461,4.040506839752197,1.5189999341964722,5.055593505859375,-0.351858377456665,-0.1936442852020263,-1.3445143699645996,1.0592084288597108,3.0656002044677733,-3.6403597354888917,-1.366749906539917,-0.10250318348407746,-0.27378980368375777
1767620472282310100,5.07531005859375,-3.671919345855713,4.035741329193115,0.5948352217674255,5.075601806640625,-0.3591887652873993,0.0763581544160842,-1.6273449659347534,0.380786669254303,3.376960849761963,-3.2903793811798097,-1.6471370697021483,0.06731735765933991,-0.2879618763923645
1767620472322400800,5.11540087890625,-2.578210830688477,4.02407169342041,-0.8687657117843628,5.1156923828125,-0.261450320482254,0.6224716901779175,-2.1172590255737305,-0.15510413348674773,2.682557201385498,-2.453752040863037,-1.7590475797653198,0.22467623949050902,-0.2028072595596313
1767620472362519300,5.155519287109375,-1.4400818347930908,1.7885384559631348,-1.846122145652771,5.155810791015625,-0.1631010174751281,0.4227187633514404,-2.141082763671875,-0.0669627159833908,1.898147964477539,-0.9845338821411133,-1.6531235575675964,0.26291640433482827,-0.11618656814098356
1767620472402611200,5.195611083984375,-0.3882195949554443,-0.4760723114013672,-0.1744679659605026,5.195903076171875,0.1215621829032898,0.1954768747091293,-1.5650367736816406,-0.18076180517673493,1.2076359748840333,0.0849625587463378,-1.3630847483873367,0.3512475166004151,-0.020036378502845755
1767620472442706400,5.23570654296875,3.155762195587158,0.1184606552124023,1.9597070217132568,5.235998046875,0.0812450796365737,-0.0024434609804302,-0.8148942589759827,0.0509910076856613,0.5157435417175293,0.6808780670166016,-0.9492846138775348,0.34965926739387215,0.06646213829517364
1767620472482792000,5.2757919921875,1.675562858581543,0.5831813812255859,0.0258397758007049,5.27608349609375,0.1215621829032898,0.5180137157440186,-0.1771509200334549,0.3456983357667923,0.22577133178710937,0.9983901977539062,-0.5617516852915287,0.3404962870758027,0.1393994480371475
1767620472522899500,5.3158994140625,0.4013667106628418,0.5646095275878906,0.2899983525276184,5.31619189453125,0.171042263507843,0.6145304441452026,-0.0482583530247211,0.3636655807495117,0.31394309997558595,1.291021203994751,-0.22137756720185284,0.21319196852855385,0.16334536671638483
1767620472562994200,5.355994140625,0.1474788188934326,0.3386774063110351,-0.3725855052471161,5.3562861328125,0.2015855312347412,0.3769038617610931,-0.2034181207418441,0.39078664779663086,-0.4121858596801758,0.2235562801361084,-0.06450736783444887,0.193644280731678,0.15674802139401434
1767620472603103200,5.396103271484375,1.0749354362487793,-0.0352134704589843,-0.0846317410469055,5.39639501953125,0.2412917762994766,-0.4410447180271148,0.1368338167667389,0.04783855080604553,-0.774567985534668,0.021516752243041993,0.07403687275946134,-0.047891835868358615,0.23396139219403267
1767620472643200000,5.436199951171875,-2.1815624237060547,-3.5121841430664062,2.0953123569488525,5.436490966796875,0.0482583530247211,-0.1001818999648094,-0.0305432621389627,0.4863824784755707,0.3046552658081055,-1.2205007076263428,0.04776966683566565,0.17935003787279125,0.16029104366898533
1767620472683307300,5.476307373046875,0.6653652191162109,-1.228729248046875,-1.6889007091522217,5.476598876953125,0.5076290369033813,-0.6896668672561646,0.5155702829360962,0.6557015240192413,0.16446075439453126,-1.185380744934082,-0.09944886155426509,0.07770205885171885,0.10836749747395516
1767620472763466800,5.556466796875,-5.808720588684082,5.960725784301758,2.482717990875244,5.5567578125,-0.1973094791173935,1.750739812850952,-0.1795943826436996,0.5435507714748382,0.42911605834960936,-1.5912625312805175,-0.2989574510604144,0.14013248831033703,0.02858849540352824
1767620472843651800,5.63665185546875,0.3230786323547363,-0.3622951507568359,0.4740097224712372,5.63694384765625,-0.0580321997404098,-0.1313360333442688,-0.9395107626914978,0.09171749949455263,1.4806023597717286,-0.8776171207427979,-0.4381125539541245,0.14831808283925055,0.013439037650823637
1767620472883737000,5.676737060546875,-0.9544734954833984,1.2880630493164062,-0.6453855037689209,5.677028564453125,-0.157603234052658,-0.128892570734024,-0.8607091307640076,0.41457263827323915,2.2598506927490236,-0.9312815189361572,-0.6167295545339585,0.25778513625264166,-0.08527678959071633
1767620472923823900,5.716823974609375,1.386664628982544,1.7452473640441897,-0.1638540029525756,5.717115966796875,-0.0274889357388019,-0.0592539273202419,-0.7263187766075134,-0.03420273661613464,1.3817551612854004,0.39696474075317384,-0.547213089466095,-0.14367550536990165,-0.042027529329061494
1767620472963903700,5.75690380859375,0.397043228149414,2.6675124168395996,-0.074625015258789,5.757195068359375,0.0140499006956815,-0.1423316001892089,-0.3775147199630737,0.4511494517326355,2.5868575096130373,0.19956448078155517,-0.24202481508255014,-0.032498031109571446,-0.11362093612551687
1767620473004017200,5.79701708984375,0.8325107097625732,1.5702481269836426,0.2388411164283752,5.79730859375,0.0189368221908807,-0.2565633952617645,0.1679879426956176,0.7889606356620789,3.202762794494629,0.11099343299865723,0.09749408960342396,-0.07623597905039786,-0.04654793068766597
1767620473044097500,5.83709765625,-0.6639226675033569,5.663216590881348,2.900770664215088,5.83738916015625,-0.4159992337226867,0.4245513379573822,0.5864306092262268,0.7841278791427613,3.462112617492676,-0.29820952415466306,0.33536501526832574,-0.025534164905548107,-0.04581489227712156
1767620473124287000,5.917286865234375,-1.3973287343978882,4.367589473724365,1.043670415878296,5.9175791015625,0.1777617931365966,-0.3475823104381561,0.836885392665863,0.5019824981689454,2.8461684226989745,-0.34226198196411134,0.5034751296043395,0.04178318381309506,-0.05338962115347384
1767620473164361200,5.957361328125,-0.6593501567840576,3.041996479034424,-0.1880177855491638,5.957652587890625,-0.0238237436860799,0.1942551434040069,0.4630358517169952,0.3382158994674682,1.9392339706420898,-0.265584659576416,0.6274807691574096,0.15454890727996823,-0.014905109256505945
1767620473184399600,5.977399658203125,0.1767809391021728,-0.4122085571289062,-1.4853519201278689,5.957652587890625,-0.0238237436860799,0.1942551434040069,0.4630358517169952,-0.11366362571716312,0.14444389343261718,0.07420446872711181,0.7465994954109191,0.16615535020828243,0.12486085668206215
1767620473204443100,5.997443115234375,1.2158973217010498,-2.9644241333007812,-0.57999187707901,5.997735595703125,0.2113593816757202,0.3072652220726013,0.788016140460968,-0.27759633064270023,-1.5062865257263183,0.5198951721191406,0.9434202671051025,0.2542421162128448,0.15100588575005536
1767620473224478500,6.017478515625,1.0350229740142822,-3.3107337951660156,0.6413730382919312,6.01781494140625,0.2828305959701538,0.4825835525989532,1.1820242404937744,-0.5986610054969788,-2.3665982246398927,0.316788911819458,1.0319957315921784,0.07208210229873653,0.1319468904286623
1767620473244521700,6.037521728515625,0.8311247825622559,-3.886062622070313,0.2240068912506103,6.0378134765625,0.3084869384765625,0.0928515195846557,1.82098925113678,0.0695696234703064,-2.322433090209961,-0.2457183837890625,0.8685281932353973,-0.016982048749923727,0.1303586408495903
1767620473364724700,6.157724853515625,-1.6748814582824707,-1.2595620155334473,-1.7933411598205566,6.1580166015625,-0.119118720293045,-0.7165449261665344,0.9059131741523744,0.5602150678634643,-1.8595775604248046,-1.142773723602295,0.5165476500988007,-0.1143539696931839,0.09321803264319897
1767620473404794400,6.19779443359375,-2.6357555389404297,-0.191382884979248,1.8558012247085571,6.1980859375,-0.0317649915814399,-0.2510656118392944,-0.3543018400669098,0.8759139060974122,-0.9268025398254396,-2.2881889820098875,0.08576548695564268,-0.2467895567417145,0.04178318157792092
1767620473444861000,6.23786083984375,-3.2693793773651123,-0.650146484375,1.87323534488678,6.238152587890625,0.0256563406437635,-0.1795943826436996,-0.9718865752220154,1.2579775333404541,0.5367528915405273,-3.536007452011108,-0.5638286054134369,-0.32363640666008,-0.03701843246817588
1767620473464907300,6.2579072265625,-4.692053318023682,1.3531413078308103,2.21986722946167,6.238152587890625,0.0256563406437635,-0.1795943826436996,-0.9718865752220154,1.8504131317138672,1.947378444671631,-3.9879271030426025,-1.1580783426761627,-0.14049900770187376,-0.08124507889151572
1767620473484952000,6.2779521484375,-5.407967567443848,3.4317145347595215,2.1343250274658203,6.27824462890625,-0.0855211317539215,-0.2913827300071716,-1.4269812107086182,1.2760705947875977,3.0946981430053713,-4.130775308609008,-1.590204405784607,0.04422664642333986,-0.17165313437581062
1767620473525021200,6.318021240234375,-3.9344797134399414,5.79356575012207,1.1688368320465088,6.31831298828125,-0.3402519524097442,0.1991420686244964,-2.065335512161255,0.6105885028839111,3.119491386413574,-3.676887845993042,-1.8081611514091491,0.16835446655750275,-0.2182010654360056
1767620473565089800,6.35808984375,-3.349996566772461,5.545215606689453,-1.0159114599227903,6.35838134765625,-0.4838052690029144,0.6725626587867737,-2.514932155609131,0.4828418970108032,2.5596465110778808,-2.207915115356445,-1.7838487148284912,0.15699237287044526,-0.2889392614364624
1767620473605164300,6.398164306640625,-0.9999420642852784,-0.5261802673339844,-1.4541751146316528,6.39845556640625,-0.2070833146572113,0.4410447180271148,-2.0616703033447266,-0.1399699449539184,2.1193157196044923,-0.42206711769104005,-1.4383433341979983,0.3511253446340561,-0.2733011117205023
1767620473645270800,6.438270751953125,2.6528103351593018,-1.4460830688476562,1.5811342000961304,6.438562255859375,-0.3280346393585205,-0.2364048510789871,-0.8503243923187256,-0.6160771846771239,1.222813034057617,0.8293105602264405,-0.9619905948638918,0.5352401405572891,-0.1620014628395438
1767620473685354800,6.478354736328125,3.5212724208831787,1.230060577392578,-0.979734182357788,6.47864599609375,-0.0073303831741213,0.6792821288108826,0.3005456924438476,-0.39627364575862883,0.30781116485595694,1.733492088317871,-0.411601021885872,0.6161186963319778,0.0006108621135354153
1767620473705397200,6.498397216796875,2.322408676147461,1.311052322387695,-1.211699366569519,6.498734375,0.2162462919950485,1.1197160482406616,0.3164281845092773,-0.1583945125341415,-0.06140079498291025,2.313387155532837,0.08857546150684345,0.4868596076965332,0.13707815799862147
1767620473725451800,6.51845166015625,1.1709110736846924,0.9702062606811525,0.0831062346696853,6.518742919921875,0.3292563557624817,1.0769554376602173,0.2370157092809677,-0.13007815778255463,-0.7854455947875978,1.0564661979675294,0.3329215556383132,0.6317568451166153,0.1869247624650598
1767620473765546200,6.558546142578125,1.8995332717895508,-2.3722400665283203,-0.2647794485092163,6.55883837890625,0.475253164768219,-0.2052507251501083,0.4392121136188507,0.2541538745164872,-1.8325048446655274,0.6423622608184816,0.469633200764656,0.3125186711549759,0.21087068021297456
1767620473805629200,6.598629150390625,-3.631794452667236,-5.066307067871094,1.722715973854065,6.598920654296875,-0.078801617026329,0.4880813360214233,0.371406078338623,0.6570706516504288,-3.047958183288574,-0.22971205711364728,0.5900958329439162,0.18985691368579866,0.18448130190372464
1767620473845718300,6.63871826171875,1.4507527351379397,-4.00523567199707,0.9414259791374208,6.639009765625,0.1123992055654525,-0.9169087409973145,0.9841039180755616,1.0270951986312866,-3.0681270599365233,-1.2822817802429198,0.5816658943891524,0.0029321461915969684,0.07782423198223115
1767620473885805800,6.678805908203125,-2.0379629135131836,-4.766214370727539,0.8028845191001892,6.679096923828125,0.0842994004487991,0.5064072608947754,0.9187413454055786,0.49808125495910643,-2.9804428100585936,-2.2616083145141603,0.3843564182519912,0.20622810125350952,-0.03384193629026412
1767620473905847800,6.698847900390625,-4.09193754196167,0.8693618774414062,1.9332289695739744,6.69918408203125,-0.2040289938449859,0.1423316001892089,0.1948660165071487,-0.2970014333724976,-2.7491079330444337,-1.991356372833252,0.16468926966190328,0.05510003566741941,-0.007452557981014259
1767620473925897000,6.71889697265625,-2.9970993995666504,-1.933818817138672,-2.909849166870117,6.719188720703125,-0.0830776765942573,0.8112290501594543,-0.5473352670669556,-0.49772469997406016,-1.997258758544922,-2.318873643875122,-0.22883011996746072,0.1783726453781128,-0.03836233913898466
1767620473966084000,6.759083984375,-2.2805347442626953,-3.909632682800293,-2.252697467803955,6.759375244140625,0.0531452745199203,-0.2675589919090271,-0.7269296646118164,-0.7951347589492799,-0.668667984008789,-2.0626731872558595,-0.6100100368261338,-0.004276055097579956,-0.048258355259895296
1767620474006177500,6.799177490234375,-0.1868336200714111,-0.2459897994995117,-0.0621903538703918,6.799469970703125,-0.0421497002243995,-0.3005456924438476,-0.9834930300712584,-1.1058857023715973,-0.2226435661315918,-1.0053006649017333,-0.8071973443031311,-0.09199630618095396,0.004764748364686965
1767620474046278100,6.839278076171875,-0.7569606304168701,1.876739501953125,-0.6841657757759094,6.83956982421875,0.0348193198442459,-0.4068362414836883,-0.9871582388877868,-0.5133475005626679,0.37818441390991214,0.030300617218017578,-0.7076263077557087,-0.339396733045578,-0.0018325962126255146
1767620474086376400,6.87937646484375,1.19492506980896,3.0994839668273926,0.3794742524623871,6.879668212890625,0.0610865242779254,-0.2962696552276611,-0.7910705208778381,0.34113057255744933,2.178022766113281,0.22369935512542724,-0.44678684547543523,-0.2348165988922119,-0.04996877685189247
1767620474126513200,6.91951318359375,2.1809070110321045,1.0703210830688477,0.05284184217453,6.919804931640625,-0.1160643994808197,-0.4257730841636657,-0.0494800843298435,0.14647321105003358,2.665487194061279,0.23472235202789307,-0.1400103218853474,-0.16090190559625625,-0.10311405286192894
1767620474166603500,6.959603515625,-1.313541054725647,5.089559078216553,2.019692897796631,6.95989501953125,-0.1875356286764145,0.2553416788578033,0.5772676467895508,0.13611165881156922,2.559566116333008,-0.02484734058380127,0.21514673158526412,-0.05815437436103822,-0.12388347163796425
1767620474206727000,6.999726806640625,-0.131718635559082,2.1913323402404785,-1.0354771614074707,7.000018310546875,-0.3078760802745819,0.0690277740359306,0.5503895878791809,0.09816546440124511,3.203293514251709,-1.0261099576950072,0.4820948474109172,0.0004886914510279763,-0.14294246733188626
1767620474246820600,7.039820556640625,-2.054809093475342,1.3471341133117676,-0.7359735369682312,7.0401123046875,-0.0690277740359306,0.1069014146924018,0.788627028465271,-0.1744284987449646,2.781412410736084,-1.559187388420105,0.6304129242897033,0.0895528458524495,-0.07782423198223112
1767620474286940700,7.079940673828125,-3.8113880157470703,6.318120956420898,0.1897432804107666,7.080232177734375,-0.0342084541916847,-0.0030543261673301,0.5436700582504272,-0.4247682332992554,0.7028621673583985,-0.9726110935211182,0.8439714074134826,0.044837508397176824,0.07391469478607178
1767620474327026700,7.120026611328125,-0.4844801425933838,-1.0390844345092771,-1.3101279735565186,7.120319091796875,0.209526777267456,0.0195476878434419,0.6921103000640869,-0.8200452566146851,-0.18260583877563477,-1.2010690212249755,0.8825780868530273,-0.03298672507517042,0.13927727527916428
1767620474367114000,7.160114013671875,1.619340419769287,-5.303192138671875,0.767994225025177,7.16040576171875,0.5711590051651001,0.0317649915814399,1.6450600624084473,-0.28930872678756714,-0.8862668991088867,-1.258962059020996,0.6741508662700653,-0.13084733705036342,0.19877555109560485
1767620474487398000,7.28039794921875,-1.2740082740783691,-2.2360076904296875,-3.011862277984619,7.280689697265625,0.0189368221908807,-0.3200933933258056,0.7434229850769043,0.15010544061660766,-2.2607665061950684,-1.060854721069336,0.4089131772518157,-0.20537289492785932,0.24361306019127366
1767620474527481300,7.3204814453125,-2.3442742824554443,-2.171171188354492,1.9177091121673584,7.320772705078125,0.2284636050462722,-0.3824016451835632,-0.2535090744495392,0.871945059299469,-1.4247286796569825,-1.9191985607147217,0.011362069845199541,-0.2444682702422142,0.1767844025045633
1767620474567578000,7.360578125,-2.8208513259887695,-0.5543770790100098,2.3868141174316406,7.360869873046875,0.1899790912866592,-0.3756821155548095,-0.7825183868408203,0.958504056930542,0.6218210220336914,-3.1035946369171143,-0.6952868282794953,-0.21013764441013333,-0.0021991129964590407
1767620474607692300,7.4006923828125,-4.7761993408203125,3.1411046981811523,2.299070119857788,7.40098388671875,-0.1246165111660957,-0.1759291887283325,-1.295645236968994,1.6963841199874878,2.2016289710998533,-3.6788135051727293,-1.27695272564888,-0.058276543021202075,-0.08625416904687883
1767620474647771600,7.440771728515625,-4.302639961242676,4.929556369781494,1.200789213180542,7.441063232421875,-0.3237585723400116,0.2034181207418441,-1.8881844282150269,1.3763270854949952,3.7805292129516603,-3.9862669944763183,-1.7134770154953003,0.1563815027475357,-0.23041836470365523
1767620474667840000,7.460840087890625,-4.150102615356445,5.663032054901123,0.6775380373001099,7.461177001953125,-0.4013384580612182,0.4392121136188507,-2.1649065017700195,0.49788613319396974,4.064295673370362,-3.7349076509475707,-2.0031492948532104,0.219544967263937,-0.30164525359869004
1767620474687889000,7.480888916015625,-3.8815417289733887,5.723330020904541,0.317423939704895,7.48118017578125,-0.4923573732376098,0.6908885836601257,-2.4361305236816406,0.11573630571365356,3.446834850311279,-2.451668047904968,-2.0041266679763794,0.13878857716917992,-0.29700267761945726
1767620474727972900,7.520972900390625,-1.5640546083450315,0.8644552230834961,-2.0053906440734863,7.521264404296875,-0.1661553531885147,-0.0598647929728031,-2.230879783630371,-0.17104083299636838,2.721469688415527,-0.6785692930221557,-1.7377894282341004,-0.012950349599123001,-0.24630086421966552
1767620474768084700,7.561084716796875,1.6399986743927002,0.0538005828857421,0.3883209824562073,7.561376220703125,-0.1014036312699318,-0.5797111392021179,-1.3005321025848389,-0.3765724241733551,1.9919211387634277,0.8231000661849975,-1.2957673221826553,-0.1351233996450901,-0.15491542518138884
1767620474788120300,7.581120361328125,4.562853813171387,1.3027305603027344,-0.2330964803695678,7.581457275390625,-0.070249505341053,-0.5552765130996704,-0.5564982295036316,-0.27426100373268125,1.0280033111572267,1.7901007890701295,-0.7387804061174392,-0.17006489410996437,0.011484262347221363
1767620474808173600,7.601173583984375,3.3582441806793213,2.015289306640625,-0.3501199185848236,7.601465576171875,0.0555887371301651,-0.1716531366109848,0.0452040284872055,0.33602225184440615,0.24038772583007811,2.0535480976104736,0.02724458873271942,-0.14624115005135535,0.11582005023956296
1767620474848271400,7.641271240234375,0.9534618854522704,0.9037408828735352,0.8289810419082642,7.641563232421875,0.3396410644054413,0.5161811113357544,0.3488040566444397,0.700325733423233,-1.0445259094238282,1.4812775373458862,0.4393342822790146,0.03176498636603353,0.15406021475791928
1767620474888354600,7.6813544921875,-0.2468180656433105,-3.073622703552246,1.046025633811951,7.681645751953125,0.3555235862731933,0.0592539273202419,1.5992451906204224,0.8706418097019195,-0.8344069480895996,-0.41064341068267823,0.6067113548517227,0.3185051344335079,0.19291124492883677
1767620474928472300,7.721472412109375,-1.2213541269302368,-6.370767593383789,2.209838390350342,7.721763916015625,0.0897971913218498,0.3103195428848266,0.759916365146637,0.16423909664154063,-1.9894959449768066,-1.4165058851242065,0.4153883635997772,0.36615262404084203,0.2327396616339683
1767620475008682800,7.801682861328125,-4.8967509269714355,2.353325366973877,0.6184839010238647,7.801974609375,0.1240056455135345,0.8784242272377014,0.280387133359909,0.014186000823974662,-2.4536383628845213,-1.594408106803894,0.15088371634483336,0.20525071993470187,0.1670105636119842
1767620475068850000,7.861849853515625,-1.6710681915283203,-3.76015567779541,-3.8821334838867183,7.862187255859375,0.2547308206558227,0.0665843114256858,-0.911410927772522,-0.3613027572631836,-1.7615700721740724,-1.8235485553741455,-0.3809355556964874,0.08613199442625041,0.07220427542924876
1767620475088897000,7.88189697265625,0.063950777053833,-1.416971206665039,0.0787155628204345,7.882188720703125,0.0109955742955207,-0.2883284091949463,-0.9737191796302797,-0.5814152002334595,-0.10241575241088867,-1.5671200037002564,-0.7321830689907074,-0.04813618808984758,0.054977875482290925
1767620475128983000,7.921983154296875,-1.392520308494568,0.38671875,-0.8314181566238403,7.9222744140625,-0.1185078546404838,-0.5363397002220154,-1.0598511695861816,-0.5125369668006897,0.017937374114990235,-0.6403870820999146,-0.9594249367713928,-0.2706133112311363,0.025900689791887966
1767620475169082600,7.96208251953125,0.0607886314392089,1.925004005432129,1.1092761754989624,7.9623740234375,0.0036651915870606,-0.3610213696956634,-0.9963212013244628,0.4244581222534179,1.5329111099243165,-0.2862520456314087,-0.8971166849136353,-0.33964108526706693,-0.03530801059678197
1767620475189126400,7.98212646484375,-0.2630863189697265,2.9550909996032715,0.9628750681877136,7.98246337890625,-0.0213802829384803,-0.2339613884687423,-0.8558222055435181,0.6530751466751098,2.2874083518981934,0.0514095544815063,-0.659856629371643,-0.35210273563861844,-0.0836885389871895
1767620475209168100,8.002168212890625,0.0996069908142089,3.8147130012512207,0.8028419613838196,8.002459716796874,-0.051312681287527,-0.2785545587539673,-0.5998696684837341,0.9961961030960083,2.877387523651123,-0.01614959239959717,-0.298224413394928,-0.15296066105365744,-0.1193630707450211
1767620475249279700,8.04227978515625,1.7522587776184082,2.3555150032043457,1.221800684928894,8.042570556640625,-0.230907067656517,-0.3506366610527038,0.2125810980796814,0.5194918394088746,3.0695048332214356,-0.2798177480697632,0.02626720666885376,0.030909779667854364,-0.14978416040539738
1767620475289379800,8.0823798828125,-1.7303160429000854,3.3366146087646484,0.8841866254806519,8.08267138671875,-0.2968805134296417,0.4593706727027893,0.7483099102973938,0.06567426919937129,2.7954015731811523,-0.37240469455718994,0.34501669406890867,0.08649851679801945,-0.15137241035699842
1767620475329464300,8.12246435546875,-1.257552146911621,2.8855905532836914,-1.2742451429367063,8.122755859375,-0.1484402567148208,0.5583308339118958,0.6261368989944458,-0.19137182235717778,2.493299865722656,-0.6370214700698853,0.6312681436538696,0.1672549039125443,-0.15723671689629554
1767620475369556700,8.162556640625,-0.7260210514068604,1.5845746994018557,-1.3062127828598022,8.162848388671875,-0.0293215326964855,0.0439822971820831,0.7379252314567566,-0.44147845506668093,1.708203411102295,-1.0764211416244507,0.7874053001403809,0.2852740705013275,-0.08002334907650947
1767620475409659100,8.2026591796875,-1.2234768867492676,2.30420446395874,-0.4823884963989258,8.202950927734374,-0.0806342139840126,0.1252273768186569,0.8313875794410706,-0.7441924452781677,0.18004274368286133,-0.6277759075164795,0.8363966941833496,0.24129177033901214,0.01038470789790153
1767620475449738200,8.24273828125,-0.4447395801544189,-1.569967269897461,-0.0287324786186218,8.243030029296875,0.1551597714424133,0.2394591718912124,0.9932668805122375,-0.5191978573799134,-1.6052187919616698,-0.09457335472106934,1.1081095457077026,0.058154371380805994,0.127548661082983
1767620475469772500,8.2627724609375,0.5129101276397705,-4.3041887283325195,-0.6293833255767822,8.243030029296875,0.1551597714424133,0.2394591718912124,0.9932668805122375,-0.21537754535675058,-3.0824421882629394,0.11995048522949218,1.3126272320747376,-0.03665191233158109,0.23029619306325907
1767620475489814300,8.282814208984375,1.4084606170654297,-6.040717124938965,-0.1492722034454345,8.28310595703125,0.4373795092105865,-0.3573561608791351,1.984701156616211,-0.39887654781341564,-4.037318229675293,0.2745105743408203,1.396071434020996,-0.12620475888252253,0.29284879565238947
1767620475569973800,8.362973876953125,0.3465981483459472,-5.801542282104492,0.2128887772560119,8.363265625,0.484416127204895,-0.4300491213798523,1.7605136632919312,-0.6161830782890321,-3.8412914276123047,-0.02200741767883301,1.3445144057273866,-0.24300219118595118,0.2968805074691772
1767620475590013200,8.38301318359375,-0.4506764411926269,-2.4701757431030273,-1.399883508682251,8.383350341796875,0.2321287989616394,-0.3225368559360504,1.2486085891723633,-0.3913441538810731,-2.9108293533325194,-0.6789902687072754,1.2929573774337768,-0.35979962348937977,0.3009122192859649
1767620475610057000,8.403056884765626,-1.9273295402526855,-0.5898332595825195,-1.115265130996704,8.403349365234375,0.1753183305263519,-0.3445279896259308,0.7354817390441895,-0.04804130792617811,-1.854518985748291,-1.548310136795044,0.8410392761230469,-0.36688566207885737,0.20305160805583
1767620475630097400,8.423097412109374,-2.7720041275024414,0.3481216430664062,0.4948112964630127,8.403349365234375,0.1753183305263519,-0.3445279896259308,0.7354817390441895,0.3920506238937377,-0.8518239974975585,-2.276630687713623,0.3464827656745911,-0.39803979396820066,0.09908234551548957
1767620475650152700,8.443152587890625,-2.938138723373413,-0.7591652870178223,1.5672420263290403,8.44344482421875,-0.0519235469400882,-0.3927863538265228,-0.2748893499374389,1.2532549619674682,0.1363297462463379,-3.1737290382385255,-0.13842207193374628,-0.43078216910362244,-0.008429937809705735
1767620475690252500,8.48325244140625,-3.295004606246948,-0.7880673408508301,2.413348436355591,8.483544677734375,-0.0354301854968071,-0.5858197808265686,-0.7122688889503479,1.697409749031067,0.9310684204101562,-3.6665438652038573,-0.6039013743400573,-0.3419623643159866,-0.1325577549636364
1767620475730355700,8.523355712890625,-4.936168193817139,2.470592975616455,2.906138181686402,8.523646728515626,-0.3054326176643371,-0.4862487316131592,-1.1759155988693235,1.5457293272018433,1.7256965637207031,-3.778501033782959,-1.1553905367851258,-0.10800097882747646,-0.24544565603137017
1767620475770448400,8.563448486328125,-4.391403675079346,3.3838601112365723,1.105508804321289,8.563739501953124,-0.4453207552433014,0.0995710343122482,-1.5919147729873655,1.0830281257629395,2.6736966133117677,-3.691775941848755,-1.5310726761817932,0.1698205322027207,-0.29663616269826887
1767620475810568400,8.603568359375,-3.331789970397949,4.321262359619141,-0.2635908126831054,8.6038603515625,-0.3891211748123169,0.8252789378166199,-2.0219640731811523,0.36031494140625,3.336008358001709,-3.322533941268921,-1.8069394111633301,0.43346997201442716,-0.33292155861854555
1767620475830607000,8.623607177734375,-2.5045132637023926,3.9808349609375,-0.7462639808654785,8.623943603515626,-0.3078760802745819,0.9963212013244628,-2.1533000469207764,-0.24710185527801523,2.601378059387207,-2.2067650318145753,-1.8592294692993163,0.5914397209882736,-0.29407052993774413
1767620475850655000,8.643655029296875,-1.4487946033477783,2.523491382598877,-1.2002174854278564,8.643946533203126,-0.2168571650981903,0.7324274182319641,-2.091602563858032,-0.44205248951911935,2.084471607208252,-0.7721565723419189,-1.6544674515724183,0.60756656229496,-0.23286183476448058
1767620475890785300,8.683785400390626,0.6426763534545898,-1.202558517456055,-0.1309458017349243,8.684077392578125,-0.1111774742603302,0.303600013256073,-1.4373658895492554,-0.508563929796219,1.2240010261535645,0.20971131324768066,-1.2896587044000625,0.5736024528741837,-0.15870279110968114
1767620475930871600,8.72387158203125,2.7816386222839355,0.7993278503417969,0.1307556331157684,8.724178466796875,-0.1392772793769836,0.1802052408456802,-0.5681046843528748,-0.22896084189414986,0.430236530303955,0.7747374534606933,-0.8791572481393815,0.43640212118625643,-0.06890560127794743
1767620475970982100,8.763982177734375,1.5775494575500488,0.0189094543457031,-0.5961480140686035,8.764274169921874,-0.0183259565383195,0.655458390712738,-0.197920337319374,0.08251813054084768,-0.34291381835937507,1.3389231204986571,-0.4351803958415985,0.2768441215157509,0.01869247518479824
1767620476011081500,8.80408154296875,0.3206174373626709,0.0120124816894531,0.6517514586448669,8.804373046875,0.1411098688840866,0.3103195428848266,-0.1007927656173706,0.7152820646762847,-0.834752082824707,0.5207654476165772,-0.05778785347938538,0.3368310943245888,0.032986721768975255
1767620476051180800,8.844180908203125,1.372133731842041,-1.3422603607177734,0.3571773767471313,8.84447265625,0.221133217215538,-0.0653625801205635,0.1282816976308822,0.8249928116798401,-1.6115451812744142,-0.20513319969177246,0.20402899384498596,0.41025709956884393,0.08710938431322574
1767620476091274000,8.88427392578125,-3.4481120109558105,-3.661749839782715,3.0328738689422607,8.884565673828124,-0.0397062413394451,0.6035348773002625,0.4495968222618103,0.9351846814155579,-2.296957778930664,-0.6134858131408691,0.4214970201253891,0.1431868180632592,0.13768902793526644
1767620476111314200,8.904314208984376,-0.8478546142578125,-3.0846376419067383,0.6793093681335449,8.904651123046875,0.1313360333442688,0.5473352670669556,0.7409795522689819,0.24256818294525137,-3.524086570739746,-0.9300148487091064,0.8001113027334213,0.21600195020437246,0.11557570658624168
1767620476131365000,8.924365234375,-0.4642136096954345,-3.408153533935547,-0.0451886653900146,8.924656982421874,0.2345722615718841,-0.6798930168151855,0.8894197940826416,0.3607817649841308,-3.0038052558898927,-1.843483304977417,0.682092136144638,0.43860124349594126,0.08649852089583869
1767620476171449900,8.964449951171876,-1.2620277404785156,-6.123631477355957,-2.811331033706665,8.9647412109375,0.0305432621389627,0.6743952035903931,1.7922786474227903,-0.6983789443969728,-3.2926974296569824,-2.095977544784546,0.6125756710767745,0.4294382572174073,0.05326745249330994
1767620476211563300,9.004563232421875,-3.1952085494995117,1.259146213531494,0.9482452869415284,9.004854736328125,0.0757472887635231,1.0476338863372805,-0.461814135313034,-1.3823272705078125,-3.774252986907959,-2.2179121017456054,0.37507126033306115,0.29370399713516243,0.05045747198164459
1767620476231604500,9.0246044921875,-4.710583209991455,-5.106210708618164,-2.262929677963257,9.024940673828125,-0.2058615833520889,0.5577199459075928,0.1020144969224929,-1.2413532853126528,-3.341162395477295,-2.3579790115356447,0.02724458873271938,0.4050036445260049,-0.02101376317441466
1767620476251652000,9.044652099609374,-1.4575273990631104,-5.492415428161621,-2.7404322624206543,9.04494384765625,0.117286130785942,-0.1313360333442688,-0.4465425014495849,-0.9081789374351501,-2.2814227104187013,-2.332693862915039,-0.521068063378334,0.2153910771012307,-0.05363396853208542
1767620476291734300,9.084734375,-1.16454815864563,-1.2427005767822266,0.6596812605857849,9.08502587890625,-0.1227839142084121,-0.1233947798609733,-0.8497135639190674,-1.295771300792694,-2.397348403930664,-1.82161865234375,-0.6294355601072311,-0.054244838654994895,-0.0853989616036415
1767620476311771000,9.10477099609375,-1.1356019973754885,-0.8249330520629883,-1.1454592943191528,9.1051083984375,-0.1325577646493911,-0.2736676335334778,-0.9492846131324768,-0.6350176692008973,-1.041639804840088,-0.7886330604553223,-0.8023104190826416,-0.24495696276426307,-0.06890560090541838
1767620476331859200,9.124859130859376,-0.6398324966430664,0.6795177459716797,-0.9897165298461914,9.125151123046876,-0.0830776765942573,-0.3005456924438476,-1.0036516189575195,-0.1069181442260743,0.4468360900878906,-0.26306986808776867,-0.7659028470516205,-0.259251208603382,-0.12131783962249751
1767620476371964700,9.164964599609377,0.4543447494506836,1.6723322868347168,1.0408384799957275,9.165255126953124,-0.1233947798609733,-0.3958406746387481,-0.7623597979545593,-0.25298444032669076,1.0072038650512696,0.26553459167480464,-0.6488610625267028,-0.2751337051391601,-0.12571606934070584
1767620476412069000,9.205069091796876,1.1702885627746582,1.9499640464782717,-0.0999346375465393,9.205361328125,-0.1447750627994537,-0.2028072625398636,-0.2645046412944793,0.021289813518524093,1.4589129447937013,0.8552445888519287,-0.37397170066833496,-0.1731192082166671,-0.12718214392662047
1767620476432128500,9.22512841796875,1.4784741401672363,1.559138298034668,-0.0706502199172973,9.205361328125,-0.1447750627994537,-0.2028072625398636,-0.2645046412944793,0.38015522956848136,1.9635136604309082,0.6598752260208129,-0.03249802589416502,-0.03249802887439723,-0.14538592845201492
1767620476452194300,9.2451943359375,1.812947988510132,1.43361234664917,0.2259119749069214,9.245486083984376,-0.1398881375789642,0.2364048510789871,0.4251621961593628,-0.10440568923950208,2.006929111480713,0.1946735382080078,0.24068090915679932,0.11863003075122838,-0.11374310851097107
1767620476492299300,9.28529931640625,-1.616679310798645,3.202521324157715,0.804610550403595,9.28559033203125,-0.1740965992212295,0.4025602042675018,0.7037167549133301,0.18596290349960315,1.9118250846862792,-0.43124871253967284,0.48270571827888487,0.20354030132293705,-0.08112290464341641
1767620476532421000,9.325421142578126,-1.8716636896133425,1.88940954208374,-1.3819661140441897,9.325713134765625,0.0348193198442459,0.3597996234893799,0.6035348773002625,0.266599667072296,1.8731243133544921,-0.7999244213104248,0.7261965990066528,0.2995683163404465,-0.05204571903450418
1767620476572525600,9.365525634765625,-1.9593226909637451,1.4744439125061035,1.3519083261489868,9.3658173828125,0.0183259565383195,0.2217440903186798,0.9456194043159484,0.4134359955787657,1.8708949089050293,-1.400059413909912,0.8466592311859131,0.3208264291286469,-0.06352998734219004
1767620476612642800,9.405642822265625,-0.3649044036865234,1.3656344413757324,0.332533597946167,9.4059345703125,0.0006108652451075,0.2773328125476837,0.9529497623443604,0.17301721572875964,0.7346423149108887,-0.8134906530380249,1.1105530261993408,0.22736404538154611,-0.08112290323479107
1767620476652736000,9.445736083984375,-1.187726974487305,1.4224653244018557,0.96009361743927,9.44602783203125,-0.1973094791173935,0.342695415019989,1.027475357055664,0.8930311679840088,-0.7380278587341309,-0.5715981006622315,1.4786604046821594,-0.01527163386344903,-0.08857545939972629
1767620476692836000,9.485836181640623,1.316164493560791,-2.4787416458129883,-0.3974833488464355,9.4861279296875,-0.2620611786842346,-0.0647517144680023,2.0231857299804688,0.9203881978988647,-1.1326011657714843,-0.7479241371154786,1.4647326707839965,-0.008429944515228216,-0.16102407699218022
1767620476773039400,9.566039306640626,-0.662200927734375,-5.473941326141357,2.2181036472320557,9.5663310546875,-0.0024434609804302,-0.8533787727355957,2.4440717697143555,1.244722032546997,-1.8086974143981933,-1.1773552894592285,1.1998615026474,0.09346237778663641,-0.22589796450920402
1767620476813121500,9.60612158203125,-2.8409528732299805,-0.498422622680664,1.4886934757232666,9.60641259765625,-0.3439171314239502,0.2559525370597839,0.8759807348251343,1.5890903711318969,-2.338739776611328,-1.670206117630005,0.7839844465255738,0.15063936114311222,-0.22284363773651422
1767620476853252900,9.6462529296875,-2.5120601654052734,-2.0148468017578125,1.9542027711868288,9.646545166015626,-0.3237585723400116,0.7867944240570068,-0.371406078338623,2.1791085481643675,-1.5478022575378418,-2.7124821186065673,0.01612682342529297,0.3079982519149781,-0.27134634521789847
1767620476893359900,9.68635986328125,-3.6519811153411865,-1.2277464866638184,2.6819353103637695,9.686651611328124,-0.1820378452539444,0.6285803318023682,-1.0519099235534668,1.887158954143524,0.16622657775878907,-3.2021528244018556,-0.9233839035034179,0.6901555538177491,-0.45045203864574435
1767620476933446700,9.72644677734375,-3.8952155113220215,1.4759459495544434,2.552607536315918,9.72673876953125,-0.504574716091156,0.7220427393913269,-1.816102385520935,1.3903496980667114,0.6961356163024902,-3.053223705291748,-1.576032328605652,0.9684657692909241,-0.5535660952329635
1767620476973533400,9.766533447265624,-3.110554456710815,3.096202850341797,0.7583556771278381,9.76682470703125,-0.8979719281196594,1.0574077367782593,-2.253481864929199,1.0090409994125367,0.9709650993347168,-2.8964612007141115,-1.9408410310745239,1.0947927117347718,-0.587652376294136
1767620477013647600,9.806647705078126,-2.0963072776794434,2.151122570037842,-0.9953528046607972,9.80693896484375,-0.8594874143600464,1.6475036144256592,-2.387261390686035,0.4714708924293518,1.0659135818481444,-1.8769038200378418,-2.072543573379517,1.1656530857086183,-0.6151413142681121
1767620477053737500,9.846737548828123,-1.7282476425170898,-0.6406993865966797,0.0476592779159545,9.84702880859375,-0.494189977645874,1.4184291362762451,-2.1954495906829834,-0.2327195644378662,0.9965441703796387,-0.7558115482330321,-1.9266689538955688,1.3556321740150452,-0.5053077384829521
1767620477093868500,9.88686865234375,1.4458057880401611,-0.7530040740966797,-0.0059152245521545,9.88716015625,-0.3194825351238251,0.9828822016716005,-1.7104226350784302,-0.4484374523162842,0.4939913749694824,0.14903178215026855,-1.5661362886428833,1.4661987900733948,-0.29407053440809255
1767620477133968100,9.926968017578124,1.7102458477020264,1.129098892211914,-0.968344748020172,9.927259765625,0.0445931628346443,1.671938180923462,-1.0867292881011963,0.08812142610549922,0.26186294555664064,0.815369987487793,-1.1572230935096741,1.4255151629447937,-0.10873401612043387
1767620477174084000,9.967083984375,1.4136621952056885,0.5834388732910156,-0.3202337622642517,9.96737548828125,0.1582140922546386,1.610240817070007,-0.4508185386657715,0.3062719464302063,0.451616096496582,1.7756358146667481,-0.7145901568233967,1.2934460878372191,-0.03408628404140478
1767620477214190800,10.00719091796875,1.2353837490081787,0.9904804229736328,1.68744158744812,10.00748291015625,0.067195177078247,1.4440854787826538,-0.342695415019989,0.14885134696960445,0.010595321655273438,1.5038317680358886,-0.2651155240833759,1.2960117220878602,0.05962044596672052
1767620477254309600,10.0473095703125,3.0730814933776855,0.3080663681030273,1.1384118795394895,10.047601318359376,-0.1209513172507286,0.7580837607383728,0.0177150927484035,0.5403979778289794,-1.353518295288086,0.4733878612518311,0.01319468542933463,1.2056036591529846,0.10690141767263403
1767620477294407200,10.0874072265625,0.0867855548858642,-2.9581079483032227,-0.7930182218551636,10.08769873046875,0.1490511149168014,0.9957103729248048,0.5369505286216736,0.8103708624839783,-2.4921878814697265,0.07581477165222168,0.2212553910911083,0.9875247597694397,0.15882496684789654
1767620477314479900,10.10747998046875,-3.4419736862182617,-5.691469192504883,0.9893884062767028,10.107816162109376,0.280998021364212,1.2198978662490845,0.3048217594623565,1.0233383059501648,-3.4613548278808595,-1.0079672813415528,0.686490374058485,0.7698123812675477,0.14062118269503115
1767620477334530300,10.1275302734375,-0.5742032527923584,-5.1099090576171875,1.0296306610107422,10.1278212890625,0.4178318381309509,0.5198463201522827,0.5894849896430969,0.8454999804496766,-3.757265090942383,-1.644985294342041,0.5766568005084991,0.8223467826843261,0.21087068505585188
1767620477374623000,10.167623046875,-4.183526515960693,-3.8553543090820312,2.7522788047790527,10.167914306640624,-0.0238237436860799,0.3555235862731933,1.9834794998168943,1.3243609547615052,-3.1123775482177733,-1.895008373260498,0.32717943787574766,0.8124507665634155,0.12510520704090594
1767620477494919700,10.287919677734376,-0.1120085716247558,-1.1714849472045898,0.2492202520370483,10.288211181640625,0.2302961945533752,1.0207557678222656,-0.5314527750015259,1.2713021516799927,-1.9172172546386719,-1.2944378137588501,0.12754867076873774,0.7792196989059448,0.03958407230675219
1767620477535011800,10.32801171875,-1.163329839706421,0.2663297653198242,1.6012866497039795,10.328303466796877,-0.2797762751579284,0.9462302923202516,-0.7104362845420837,1.3280227422714233,-0.6238466262817383,-1.0709215641021728,-0.05729916095733646,0.8322427988052368,-0.09040805511176588
1767620477575119600,10.36811962890625,-0.439120888710022,0.284332275390625,0.7240943908691406,10.3684111328125,-0.1466076523065567,1.053742527961731,-0.6933320760726929,1.0170754194259644,0.6803462028503418,-0.1260531425476074,-0.44580946639180186,0.9584475517272949,-0.1516167551279068
1767620477615228000,10.408227783203126,0.5433779954910278,1.3569440841674805,1.3132336139678955,10.40852001953125,-0.2321287989616394,0.7849618196487427,-0.3347541689872741,1.0536261081695557,1.3174777030944824,-0.03064420223236085,-0.27672196701169016,0.9360898971557617,-0.26584855616092684
1767620477655341300,10.44834130859375,0.5408155918121338,2.665609836578369,1.1975421905517578,10.44863330078125,-0.3298672437667846,0.986547350883484,0.0409279726445674,0.6575363874435425,1.670668125152588,0.4547973394393921,-0.003665197640657447,0.8674286365509033,-0.2519208312034607
1767620477695449900,10.488449951171877,0.365036129951477,2.0141725540161133,0.4319736957550049,10.488741455078124,-0.3408628106117248,0.9089674949645996,0.3139847218990326,0.5718770742416381,2.1409533500671385,0.3492535352706909,0.2706133000552654,0.7894822359085083,-0.27818804085254667
1767620477735553500,10.528553466796875,1.2638778686523438,2.0322818756103516,-0.3791619539260864,10.52884521484375,-0.2101376503705978,0.6029239892959595,0.6548475623130798,0.4483407735824585,2.2303434371948243,0.18584961891174318,0.4757418505847454,0.7819075107574462,-0.27769934833049775
1767620477775656700,10.56865673828125,-0.9668399095535278,2.635758399963379,0.2957978248596191,10.5689482421875,-0.2779437005519867,0.6640105247497559,0.6780604124069214,0.1534045696258545,2.080323505401611,0.08266134262084962,0.5919284164905548,0.7891157150268555,-0.27391197979450227
1767620477815792400,10.60879248046875,-0.2736415863037109,1.803894519805908,0.6955521106719971,10.609083740234375,-0.2296853363513946,0.7470881938934326,0.6908885836601257,0.18622803688049316,2.331538963317871,-0.19065847396850583,0.6255260050296784,0.8956506013870239,-0.28344147503376005
1767620477855888000,10.648887939453124,0.024874210357666,1.915510177612305,-0.2771388292312622,10.649179931640624,-0.3109304010868072,1.0225883722305298,0.6218608021736145,0.20661208629608155,2.0063940048217774,-0.402112340927124,0.5837428212165833,1.0530094861984254,-0.30579914450645446
1767620477895986400,10.688986328125,-1.0015629529953003,3.270249843597412,0.5960910320281982,10.689278076171876,-0.3885102868080139,1.441641926765442,0.4819726645946502,-0.2254409790039063,0.8640304565429687,-0.10735766887664795,0.5596747279167176,1.210246205329895,-0.26633724719285967
1767620477916025900,10.70902587890625,0.2066085338592529,0.4065570831298828,-0.2772417068481445,10.70936279296875,-0.3219259977340698,1.3897184133529663,0.4459316432476043,-0.9130953788757324,0.6629368782043457,0.18469693660736083,0.038240146636962805,1.4764612913131714,-0.3263242140412331
1767620477936075300,10.7290751953125,0.5069334506988525,-3.076059341430664,-1.86446750164032,10.7293671875,-0.0806342139840126,1.4501941204071045,0.5577199459075928,-0.9071720480918884,0.44902963638305665,0.7077778577804565,-0.41318925619125385,1.689897632598877,-0.2808758422732353
1767620478377065000,11.17006494140625,1.186631441116333,0.798426628112793,-2.742719888687134,11.1703564453125,-0.5296201705932617,2.0781636238098145,-1.9162843227386477,-1.2439128756523132,-0.0667877197265625,1.6809055805206299,-0.7474547207355501,1.7437759637832642,-0.1946216717362404
1767620478417170700,11.210170654296874,2.6402788162231445,0.8459739685058594,-0.2475221753120422,11.210462646484377,-0.0836885422468185,2.0897700786590576,-1.6352862119674685,-1.3319830060005189,-0.26340694427490235,2.4211967468261717,-0.9826378464698793,1.8285640716552733,-0.08833111673593524
1767620478457262600,11.2502626953125,3.8640756607055664,0.6911630630493164,-1.0876131057739258,11.250554443359375,0.0427605658769607,1.711033582687378,-1.189354658126831,-0.8377926707267761,0.019580841064453125,3.0025670528411865,-1.0615616321563723,1.676580798625946,-0.053878316283226056
1767620478497377500,11.29037744140625,3.908064365386963,-0.5765390396118164,-0.7175923585891724,11.2906689453125,0.209526777267456,1.8136589527130127,-0.7299839854240417,0.1379007935523986,-1.062061882019043,3.0880970001220702,-0.42528438568115234,1.5217875361442565,0.12229522168636316
1767620478577558300,11.370558349609375,3.413784980773926,-1.6611204147338867,0.6064841747283936,11.370849609375,0.0916297882795333,0.6902777552604675,0.1631010174751281,0.3270468592643737,-1.8279949188232423,1.9616813659667969,0.16041319370269774,1.3930171370506286,0.2645046532154082
1767620478617673200,11.410673095703125,1.614281177520752,-4.6097869873046875,2.13574743270874,11.410964599609375,0.3512475192546844,1.3041973114013672,1.2651019096374512,1.0515016436576843,-1.5619733810424805,0.7646332263946534,0.7111693143844604,1.3950940728187562,0.15454891026020043
1767620478637707800,11.430707763671874,-2.9917993545532227,-2.9836912155151367,0.6982081532478333,11.43104443359375,0.627358615398407,1.445918083190918,1.2932016849517822,0.477002727985382,-1.8394916534423829,-0.06204311847686768,0.7117801785469056,1.3329079747200012,0.15125023722648614
1767620478697919700,11.490919677734375,-2.1211650371551514,2.021270751953125,2.534660816192627,11.491211181640624,-0.5070181488990784,1.7214182615280151,1.5644259452819824,0.9928223252296448,-1.3451410293579102,-0.9082693815231323,0.5187467575073242,1.4356554985046386,0.05949827730655666
1767620478778129000,11.57112890625,-0.2253173589706421,-1.964130401611328,-3.5900869369506836,11.571420166015624,0.1930334120988845,1.5027284622192385,-0.7269296646118164,0.44300581216812135,-0.3521350860595703,-0.9626440525054931,0.10910053253173828,1.4405424118041992,-0.06927211582660678
1767620478818210600,11.61121044921875,-0.8173463344573975,0.8106327056884766,3.185582160949707,11.611501953125,-0.3671300113201141,1.2040153741836548,-0.8020660877227783,0.405108654499054,0.5670219421386719,0.032108640670776366,-0.25973989963531496,1.4175738573074341,-0.2390926569700241
1767620478858335500,11.65133544921875,1.3424078226089478,0.3552427291870117,-0.613335132598877,11.65162646484375,-0.2926044464111328,1.32863187789917,-0.7831292152404785,-0.08252493143081666,0.5663751602172852,1.1022090911865234,-0.6040235608816147,1.3289983987808227,-0.1907121330499649
1767620478898432000,11.691431884765626,1.981964111328125,1.6120939254760742,0.5087223649024963,11.691723876953125,-0.2217440903186798,1.3310753107070925,-0.5510004758834839,0.39765483140945435,1.4050164222717285,1.4109019994735719,-0.39926152527332304,1.2366355895996093,-0.2823419213294983
1767620478938538000,11.7315380859375,3.229337215423584,2.0180368423461914,0.0964928865432739,11.7318291015625,-0.2651155292987823,1.2785409688949585,-0.1569923609495163,-0.2568377137184143,1.8533939361572265,2.1407155752182008,-0.09590584337711335,1.1407297492027282,-0.2642603099346161
1767620478978640100,11.77164013671875,1.3181471824645996,2.2290759086608887,-1.1891881227493286,11.771931396484376,-0.2651155292987823,1.0409144163131714,0.2968805134296417,-0.2902017951011658,2.290746879577637,1.9433582901954651,0.18521433770656587,1.108598244190216,-0.2421469897031784
1767620479018748700,11.811748779296876,2.831721544265747,3.052520275115967,-0.0868805646896362,11.812041015625,-0.2767219543457031,0.7244861721992493,0.7147123217582703,-0.6229636430740356,2.3085479736328125,1.8421633839607239,0.45900414884090424,0.9993755459785462,-0.18729128912091259
1767620479058843400,11.851843505859376,0.3556213974952698,2.5420074462890625,-0.7801555395126343,11.85213525390625,-0.1820378452539444,1.1679743528366089,0.6224716901779175,-0.5157482385635376,2.2491525650024413,1.6404751896858216,0.6434854567050934,0.8987049460411072,-0.1627345032989979
1767620479098946300,11.8919462890625,1.475989580154419,1.7010993957519531,-1.155086874961853,11.892238037109376,0.0525344125926494,0.7849618196487427,0.817948579788208,-0.1394580602645874,2.232763481140137,1.9044496178627015,0.7158118963241578,0.9162978529930115,-0.16041321232914926
1767620479139046400,11.93204638671875,2.2208962440490723,1.721059799194336,0.6325699090957642,11.9323388671875,-0.1423316001892089,0.7751879692077637,0.7654141783714294,-0.0480660080909729,2.0834347724914553,1.7114449381828307,0.7270518183708191,1.0188010454177856,-0.18142697885632514
1767620479159095800,11.952095703125,2.638019323348999,2.1471304893493652,0.6922627687454224,11.952432861328123,-0.2535090744495392,1.1288789510726929,0.6585127115249634,0.19181618690490723,1.299064540863037,2.2790499448776247,0.9219178318977356,1.0063393831253051,-0.18704693987965584
1767620479179148300,11.972148193359375,1.866698145866394,2.3058767318725586,0.3700796961784363,11.972440673828125,-0.3817907869815826,1.23700213432312,0.7709119319915771,0.42181692123413084,0.23218698501586932,2.7960889101028443,1.1898433327674867,1.0346835374832153,-0.19230038113892078
1767620479219236000,12.012236083984376,3.1936464309692383,-1.3798437118530271,0.4192554354667663,12.012527099609375,-0.2101376503705978,1.1056660413742063,1.5968017578125,0.41911753416061404,-1.2796326637268065,2.921246790885925,1.5263078927993774,0.9387776970863342,-0.12730432040989398
1767620479239273500,12.0322734375,4.061184406280518,-3.6332883834838863,-0.0050832033157348,12.032610595703124,0.0262672062963247,0.9266825914382936,2.157576084136963,0.15497382879257202,-1.7002803802490234,2.4422975301742555,1.616960310935974,0.7595498383045196,-0.0609643552452326
1767620479259322400,12.052322265625,2.8466856479644775,-5.838038444519043,0.6190729737281799,12.05261376953125,0.182648703455925,0.2956587672233581,2.447736978530884,0.4371907711029053,-2.307132530212402,2.171176624298096,1.5503759980201721,0.599625313282013,-0.0014660779386759081
1767620479339497500,12.13249755859375,0.2432730197906494,0.0438919067382812,-0.6284557580947876,12.1327890625,0.0781907513737678,0.23273965716362,1.1117748022079468,0.748806345462799,-2.3630887985229494,1.5210294723510742,1.22344091758132,0.35686747580766676,0.06279694698750969
1767620479379594000,12.172593994140623,0.5110936164855957,-0.7283840179443359,1.7811644077301023,12.172885498046876,-0.0842994004487991,0.4373795092105865,0.4379903674125671,1.465721881389618,-1.1392926216125487,0.5139734268188476,0.7172779701650143,0.07220426946878432,0.0025656357407569776
1767620479419705000,12.212705078125,-0.0570893287658691,-1.6596250534057615,1.9773333072662351,12.212996826171874,0.1111774742603302,-0.1081231459975242,-0.0378736443817615,1.3846552968025208,0.8143533706665039,-0.3530147552490234,0.07855727896094322,-0.015271632373332978,-0.19853120595216753
1767620479459805700,12.2528056640625,-0.9740958213806152,2.4856925010681152,3.5794944763183594,12.25309765625,-0.2748893499374389,-0.4966334402561188,-0.3732386529445648,1.4528477907180786,1.455464744567871,-0.5411173343658447,-0.42161919847130774,0.014905108511447907,-0.33011158406734464
1767620479499899100,12.292899169921874,-1.488255262374878,3.9301915168762207,0.2137400507926941,12.293191162109377,-0.8228355050086975,-0.1417207419872284,-0.7458664774894714,1.0804935574531556,2.3538256645202638,-0.6143026351928711,-0.8514239884912967,-0.028344149887561794,-0.44202210307121276
1767620479539990300,12.332990234375,-0.697239875793457,3.249448776245117,-0.2874932885169983,12.33328173828125,-0.5797111392021179,0.3836233615875244,-1.389107584953308,0.46341897249221803,3.4183106422424316,-0.4753242015838623,-1.187033349275589,-0.01172861568629741,-0.5871636867523193
1767620479580115500,12.373115478515626,0.1451671123504638,3.763420581817627,-0.0806067585945129,12.37340673828125,-0.6438519954681396,0.221133217215538,-1.711033582687378,-0.5420690894126892,3.4114115715026854,0.01943216323852539,-1.4343115925788879,0.0366519082337618,-0.6384763717651367
1767620479600157400,12.393157470703123,0.6378028392791748,3.662799835205078,-1.108039617538452,12.393494873046874,-0.6145304441452026,-0.0250454749912023,-1.7159204483032229,-0.6752260088920593,2.7839807510375976,1.0802470684051513,-1.4982080936431885,-0.11325442306697368,-0.545136159658432
1767620479620211200,12.413211181640625,1.4996860027313232,2.4511971473693848,-1.4479458332061768,12.41350244140625,-0.5314527750015259,-0.2547308206558227,-1.6096298694610596,-0.4503945231437683,2.6594901084899902,1.7956506729125976,-1.126557672023773,-0.3415958475321531,-0.4398229867219925
1767620479660317200,12.453317138671874,3.815819263458252,0.7930374145507812,-0.4520445466041565,12.453609130859377,-0.3561344444751739,-0.8912523984909058,-1.065348982810974,-0.11639688014984126,2.39322509765625,2.297198438644409,-0.7087258398532867,-0.45167376212775706,-0.2919935926795006
1767620479740516600,12.5335166015625,2.8797781467437744,2.62699556350708,0.8366641402244568,12.533808349609377,-0.0531452745199203,-0.7580837607383728,0.4691445231437683,0.618334174156189,0.5189680099487305,2.9764408111572265,-0.01966984868049617,-0.46462410539388654,-0.17751744389533997
1767620479780591600,12.573591552734374,2.6529059410095215,2.432095527648926,1.589381456375122,12.573883544921877,0.0952949747443199,-0.3292563557624817,0.3781255781650543,0.20278213024139405,-0.36348924636840824,2.866785192489624,0.14245377182960514,-0.4632801994681358,0.0662177860736847
1767620479820678100,12.61367822265625,4.034014701843262,-5.7084856033325195,2.565615653991699,12.6139697265625,-0.0421497002243995,-0.0897971913218498,1.72935950756073,0.6730950713157654,-0.07316961288452148,2.466424655914307,0.12180653214454651,-0.5004208073019981,0.14831807613372802
1767620479981045200,12.774045166015624,0.9514079093933104,-1.9610891342163088,-3.5257060527801514,12.774337158203124,0.6872233748435974,-0.2480112910270691,-0.799011766910553,0.3394872665405273,-0.454449462890625,2.1978960990905763,-0.24080308079719542,-0.4996877655386925,0.09724974334239958
1767620480021124000,12.8141240234375,1.814016580581665,2.244635581970215,1.8995201587677,12.81441552734375,0.0543670058250427,-1.0769554376602173,-1.168585181236267,-0.5047316074371337,-0.7444875717163086,2.11758713722229,-0.5588195204734803,-0.6173404082655907,0.09272934049367901
1767620480061214000,12.8542138671875,1.537135362625122,0.7205963134765625,-0.8313748836517334,12.854505859375,-0.3084869384765625,-0.7544185519218445,-1.3439035415649414,-1.247453784942627,1.2719468116760253,1.813754940032959,-1.0674259185791015,-0.8575326204299927,0.09211847484111782
1767620480101319200,12.894319091796875,2.251361131668091,0.9819049835205078,-2.6317129135131836,12.89461083984375,0.0726929605007171,-0.9175195693969728,-1.2119566202163696,-0.6230224668979645,2.142782974243164,1.9469518661499023,-0.9540493249893188,-1.0253983855247497,-0.07916813492774967
1767620480141415700,12.934415771484376,2.5148537158966064,4.37368631362915,-1.1479952335357666,12.93470703125,-0.0452040284872055,-1.29075825214386,-0.8136724829673767,-1.0914881825447083,2.3067940711975097,1.4715967416763305,-0.7213096731342376,-0.9039583742618561,-0.1263269305229187
1767620480181502700,12.974502685546875,1.6173925399780271,2.3930916786193848,-0.403549462556839,12.974794677734376,-0.16920967400074,-1.0873401165008545,-0.2321287989616394,-0.7563198208808899,2.6227958679199217,1.2405706644058228,-0.42785000884905455,-0.8899084746837616,-0.06829473413527012
1767620480221697800,13.01469775390625,-0.5627590417861938,3.0646910667419434,-0.4428084194660187,13.0149892578125,-0.1814269721508026,-0.4697553813457489,-0.0048869219608604,-0.46541131734848024,2.4153594970703125,0.8380473136901856,-0.17177530312910677,-0.8168489992618561,-0.08063421137630941
1767620480261790000,13.0547900390625,0.382004976272583,2.300605297088623,0.8444669246673584,13.055081298828124,-0.0183259565383195,-0.6841690540313721,0.1233947798609733,-0.7050782084465027,1.6313485145568847,0.43560347557067863,0.010751227196305982,-0.7330382883548737,-0.05827654339373114
1767620480301884000,13.0948837890625,0.2387443780899047,-0.055276870727539,-1.1771703958511353,13.095175537109377,0.0109955742955207,-0.5522221922874451,0.0684169083833694,-1.1019628822803498,1.1860252380371095,0.30544636249542234,0.11044443612918256,-0.7866722643375398,-0.004031709209084566
1767620480341977900,13.134977783203125,0.5026345252990723,0.4536314010620117,-2.346329689025879,13.13526904296875,0.0665843114256858,-0.8717046976089478,0.098960168659687,-1.1921631336212157,0.6093169212341308,0.724143648147583,0.2773328155279159,-1.0104932904243469,0.0689056005328893
1767620480382080000,13.175080078125,0.9666069746017456,0.1664752960205078,-2.387972831726074,13.175371826171874,0.1020144969224929,-1.3555099964141846,0.2663372457027435,-1.2669608891010284,-0.057844924926757815,1.1095974922180176,0.5400048717856407,-1.1915537476539613,0.11227703392505635
1767620480422197800,13.21519775390625,1.5307273864746094,0.1811494827270507,-0.8938096761703491,13.215489501953124,0.1832595765590667,-1.5888605117797852,0.8295549750328064,-0.9810725688934326,-0.7285551071166992,1.3801210165023803,0.9453750446438789,-1.3892297506332398,0.1726305201649665
1767620480442256600,13.235256591796874,2.309274196624756,-1.0352039337158203,0.4704781472682953,13.235593505859375,0.1985312104225158,-1.5894713401794434,1.4367550611495972,-0.9059927225112915,-1.5358274459838868,1.2237670183181764,1.475483924150467,-1.5291178941726684,0.26584855616092673
1767620480462316300,13.25531640625,1.5913619995117188,-3.408827781677246,0.2522712051868438,13.255608154296874,0.3127630054950714,-1.540602207183838,2.0952677726745605,0.01648104190826416,-1.4270143508911133,0.764773178100586,1.3120163798332214,-1.213178387284279,0.24740042556077232
1767620480502408000,13.295407958984375,-0.2791354656219482,-3.582730293273926,-1.9709304571151731,13.29569873046875,0.5326744914054871,-1.5711454153060913,2.749504566192627,0.38369868993759154,-1.3147178649902345,0.31169312000274657,1.1074987024068832,-1.193264189362526,0.14978415835648773
1767620480943413500,13.73641357421875,-1.328362226486206,0.710540771484375,2.224395990371704,13.736705322265625,0.0097738439217209,0.2241875380277633,-0.5510004758834839,0.0997877538204193,-2.0966297149658204,-0.39891412258148196,0.8257676504552365,-1.1026117950677872,0.03127630222588775
1767620481043615700,13.83661572265625,-0.7346729040145874,0.7426319122314453,0.9422785639762878,13.83695263671875,-0.3048217594623565,-1.4892895221710205,-0.1930334120988845,-0.29948173761367797,-1.376908302307129,-0.9468212604522706,0.25607472881674764,-1.084407988190651,-0.0007330371066928299
1767620481063660500,13.85666064453125,-1.2437620162963867,-4.94476318359375,-0.949076533317566,13.85695263671875,-0.394008070230484,-1.1362093687057495,0.0280998013913631,-0.06527543067932133,-0.32111387252807616,-1.0005463361740112,-0.41734313741326334,-0.9876469284296036,-0.08918632399290805
1767620481103742200,13.8967421875,-1.148173689842224,0.1897792816162109,-1.7440762519836426,13.897033203125,0.1527163088321685,-1.4495831727981567,-0.7531968355178833,-0.6735713481903076,-0.40106725692749023,-1.101884388923645,-0.4388455845415592,-1.231748676300049,-0.07574728876352316
1767620481123778600,13.916778564453123,-0.5477608442306519,1.696241855621338,-0.7998989224433899,13.917115966796874,0.090408056974411,-1.0873401165008545,-0.617584764957428,-0.8391425609588623,-0.6721528053283692,-0.9452880859375,-0.576412434130907,-1.1878885507583619,0.023579399287700586
1767620481143826400,13.936826416015624,-1.835052490234375,0.3107738494873047,-0.8170835971832275,13.93711767578125,0.0769690200686454,-0.9963212013244628,-0.6585127115249634,-0.4137267112731934,0.4832159996032715,-0.712301516532898,-0.7569841980934143,-1.1485488295555115,0.08686503618955607
1767620481183930400,13.976930419921874,0.0483086109161376,-0.6127958297729492,0.1144225001335144,13.9772216796875,0.1918116807937622,-1.2699888944625854,-0.8808676600456238,-0.47386894226074217,0.5020630836486817,-0.219009256362915,-0.7656584858894349,-0.9155648350715637,0.01966985911130903
1767620481224034300,14.017034423828123,-0.0788291692733764,0.8320808410644531,1.1780027151107788,14.017326416015624,-0.0775798857212066,-0.9395107626914978,-0.8747590184211731,-0.9632116675376892,0.01673736572265625,0.058147895336151126,-0.7542963862419129,-0.8880759000778198,-0.024434612691402444
1767620481264148700,14.057148681640625,1.3182876110076904,0.2840147018432617,-2.0447874069213867,14.057440185546875,-0.1832595765590667,-0.2846632003784179,-0.7965682744979858,-1.179434335231781,0.13003768920898437,0.39427596926689146,-0.727418315410614,-0.9296147346496582,-0.0706160247325897
1767620481304246800,14.097246826171874,0.838024914264679,-0.7303867340087891,-3.246612548828125,14.097537841796877,-0.1301143020391464,-0.949895441532135,-0.5607742667198181,-1.0601749300956727,0.5284175872802734,0.22088629603385926,-0.6560692548751831,-0.9164200305938721,-0.1397659689188003
1767620481344355000,14.13735498046875,-0.1544121205806732,0.8772754669189453,-1.8981969356536863,14.13764697265625,-0.1539380401372909,-1.2040153741836548,-0.5241223573684692,-1.3063409686088563,0.2183370590209961,0.16568819284439087,-0.601213562488556,-0.9373116135597229,-0.18997909128665924
1767620481364402700,14.157402587890624,-0.8186397552490234,1.379103660583496,0.7107195258140564,14.13764697265625,-0.1539380401372909,-1.2040153741836548,-0.5241223573684692,-1.0734572291374207,0.19919757843017577,-0.1336352586746216,-0.5788558959960938,-1.0242988228797913,-0.2768441289663315
1767620481384456200,14.177456298828124,-0.3548196852207184,-0.7183218002319336,-0.0528274774551391,14.177748046875,-0.3286454975605011,-1.043968677520752,-0.6004805564880371,-0.7039331078529358,0.2235034942626953,-0.28753918409347534,-0.5529552161693573,-0.9562484383583069,-0.3308446168899536
1767620481424570400,14.2175703125,-0.1783296465873718,0.1883172988891601,-0.880368709564209,14.2178623046875,-0.617584764957428,-0.7195992469787598,-0.684779942035675,-0.6337767958641052,-0.4675697326660157,0.000464707612991333,-0.49101348519325255,-0.8338310480117798,-0.3500257849693299
1767620481464683800,14.257683837890625,0.0685052871704101,-0.6088571548461914,-1.398991942405701,14.257975341796875,-0.4001167416572571,-0.6096435189247131,-0.4312708675861358,-1.3541671991348267,-1.578989601135254,0.612449437379837,-0.4290717542171478,-0.7114136576652528,-0.36920695304870604
1767620481504794600,14.297794677734377,1.2856073379516602,-2.57809066772461,-1.5474153757095337,14.298085693359376,-0.249843880534172,-0.5919284224510193,-0.2144137024879455,-1.5364264726638794,-2.5496177673339844,1.3998074173927306,-0.18545868992805475,-0.6762278199195862,-0.33731978833675386
1767620481524831500,14.31783154296875,2.241283893585205,-4.177995681762695,-2.891232490539551,14.298085693359376,-0.249843880534172,-0.5919284224510193,-0.2144137024879455,-1.7170440912246705,-3.484541320800781,2.1096343040466308,0.341962367296219,-0.6967528939247132,-0.14929546415805817
1767620481584995600,14.37799560546875,3.58197021484375,-5.571462631225586,-0.9641238451004028,14.378287109375,-0.16920967400074,-0.8680394887924194,0.617584764957428,-1.7838703393936157,-3.2346970558166506,1.1927546501159667,0.5055520832538606,-0.8392066717147827,0.027000245451927175
1767620481625074000,14.418073974609374,3.370804786682129,-4.486300468444824,-1.783456802368164,14.41836572265625,0.3225368559360504,-0.8222246170043945,1.9523253440856936,-1.8025474786758422,-2.3603322505950928,0.5173660278320312,0.4972443163394929,-1.0378600478172302,0.22015582919120788
1767620482025976600,14.8189765625,-4.51589298248291,0.6403641700744629,-1.7331231832504272,14.81926806640625,0.4813618063926697,-1.321912407875061,0.3866777122020721,-1.3050859928131104,-2.716572141647339,-0.5653046607971192,0.19083430171012888,-0.8273558855056763,0.33585370481014254
1767620482066062600,14.8590625,-2.0913357734680176,1.7937333583831787,-1.6408010721206665,14.859354248046875,0.7159340381622314,-1.5851953029632568,-0.2559525370597839,-0.7662667989730835,-2.5429952144622803,-1.8078804016113281,-0.28197540640830987,-0.5616295099258424,0.43542473912239077
1767620482266560500,15.059560546875,-3.172069549560547,-5.959195137023926,-0.4039250612258911,15.059851806640625,0.3286454975605011,0.4605923891067505,-1.7464637756347656,0.07984611988067628,-2.1713507175445557,-3.143166446685791,-1.123869889974594,-0.19620993137359627,0.38179076910018916
1767620482286595300,15.07959521484375,-2.630908489227295,-4.703577995300293,1.7299721240997314,15.059851806640625,0.3286454975605011,0.4605923891067505,-1.7464637756347656,0.8040455102920532,-2.7026475429534913,-2.7945791721343993,-1.710422694683075,0.399505853652954,0.24581216573715206
1767620482306635500,15.099635498046876,-3.3056254386901855,-2.628077983856201,2.4471077919006348,15.09992724609375,0.0543670058250427,1.004873275756836,-2.2571470737457275,1.0949146270751953,-3.451408576965332,-2.8795307159423826,-2.1614855766296386,1.0199005842208861,0.011728608608245806
1767620482326674000,15.119673828125,-2.772956609725952,-2.016119956970215,1.8878737688064575,15.1200107421875,-0.1985312104225158,1.6566665172576904,-2.546086311340332,0.5894328355789185,-2.4269105911254885,-2.7889145374298097,-2.3283739566802977,1.014036279916763,-0.13206906914711003
1767620482346720500,15.139720458984376,-2.5160934925079346,-1.9500718116760256,-0.186455488204956,15.14001171875,-0.4544837474822998,1.5167783498764038,-2.5112669467926025,-0.12349464893341064,-1.230630111694336,-2.6573206424713134,-2.5027148723602295,0.8406727254390717,-0.23127358555793767
1767620482386821000,15.179821044921876,-2.7189886569976807,-0.836705207824707,-2.9313340187072754,15.180113037109376,-0.3903428912162781,0.4312708675861358,-2.5809056758880615,-1.00347158908844,-0.34725761413574224,-2.0615859985351563,-2.5677109241485594,0.5371948778629302,-0.2685363650321961
1767620482426930200,15.21993017578125,-1.9729390144348145,1.2778244018554688,-1.834665298461914,15.220221435546875,-0.167377084493637,-0.4062253832817077,-2.618168354034424,-1.6676272869110107,0.38509283065795896,-1.5471888542175294,-2.5040587902069094,0.11203266978263846,-0.24129177406430244
1767620482467043600,15.260043701171876,-0.3269522190093994,1.7887845039367676,-1.9527769088745115,15.26033544921875,-0.1319468915462494,-0.5125159621238708,-2.582127332687378,-1.8030186891555786,0.7849573135375977,-0.9175640344619751,-2.347555136680603,-0.24068091213703163,-0.16762142404913905
1767620482507155000,15.300155029296874,-0.2009708881378173,1.645632266998291,-1.4329047203063965,15.300447021484375,-0.0623082555830478,-0.4691445231437683,-2.22782564163208,-1.3722763299942016,0.9097732543945313,-0.20233333110809326,-2.115304160118103,-0.3643200397491456,-0.11887437626719474
1767620482547262700,15.3402626953125,0.6320306062698364,0.0492506027221679,-0.8634124994277954,15.3405537109375,-0.0861319974064827,-0.2467895597219467,-1.7287486791610718,-1.230800175666809,0.6795608520507812,0.21053571701049806,-1.8206227779388429,-0.32534683942794806,-0.12376129552721982
1767620482567314400,15.360314453125,0.8571648597717285,-0.212625503540039,-0.7776222229003906,15.3606513671875,-0.1466076523065567,-0.1869247704744339,-1.4196507930755615,-1.2544648408889771,0.5037108421325683,0.04754838943481445,-1.4877012252807618,-0.2787989020347596,-0.15564846321940423
1767620482587372500,15.38037255859375,0.091406226158142,0.1267623901367187,-1.1272845268249512,15.380664306640623,-0.1918116807937622,-0.2113593816757202,-1.1447614431381226,-1.354188585281372,0.12447776794433593,-0.0407801151275635,-1.2256400108337402,-0.2428800225257874,-0.1844813033938408
1767620482627473000,15.420472900390624,-1.1418888568878174,0.9095344543457032,-2.0711002349853516,15.42076416015625,-0.2913827300071716,-0.2797762751579284,-0.9175195693969728,-1.3234778881072997,-0.2539621353149414,0.06942288875579831,-1.1211820363998413,-0.285518416762352,-0.1941329747438431
1767620482667569200,15.460569091796875,-0.642613410949707,-0.2505331039428711,-1.9315234422683716,15.46086083984375,-0.2064724564552307,-0.2895501255989074,-0.9175195693969728,-1.5313584327697753,-0.8303745269775391,0.435139536857605,-0.9768956780433655,-0.3426954030990601,-0.1860695540904999
1767620482707687700,15.500687744140626,1.1830456256866455,-1.8429489135742188,-0.7098590135574341,15.5009794921875,-0.1343903541564941,-0.4599815309047699,-1.2064588069915771,-1.6808811187744142,-1.928021240234375,1.1481971740722656,-0.6533814489841462,-0.4103792667388916,-0.18435913324356082
1767620482747774700,15.540774658203125,2.6857481002807617,-3.0946874618530273,-1.8170249462127688,15.5410673828125,-0.1062905490398407,-0.4728097021579742,-0.6982190012931824,-1.6459091663360597,-2.756700134277344,1.7124171733856202,-0.6159964978694916,-0.40243802070617674,0.03017674684524534
1767620482787849700,15.580849609375,3.6566944122314458,-5.361471176147461,-1.8748979568481443,15.581140869140626,-0.1832595765590667,-0.5497786998748779,0.4728097021579742,-1.5584788560867309,-3.1306981086730956,1.3428199291229248,-0.7645589292049408,-0.28063148856163034,0.19303342103958127
1767620483469241300,16.262241455078126,1.679211139678955,-3.2338600158691406,-1.896240472793579,16.262532958984377,0.7812966704368591,-0.2400700449943542,-0.7305948138237,-1.4981431722640992,-2.833154582977295,0.6334357261657716,-0.8349306046962738,-0.05900957584381113,0.29003882408142084
1767620483509349600,16.302349609375,-2.4905996322631836,-2.120522975921631,-1.4943718910217283,16.30264208984375,0.607810914516449,0.3194825351238251,-1.6603317260742188,-1.176640796661377,-2.5504029273986815,-0.1571711540222167,-1.0626611530780792,0.26303859353065484,0.3358537167310714
1767620483549437200,16.342437255859377,-2.363875389099121,-0.3552312850952148,-0.4081805944442749,16.342728515625,0.3506366610527038,0.6481280326843262,-1.5583171844482422,-1.097252082824707,-1.8012320518493652,-1.037278938293457,-1.5338826060295105,0.5177694022655487,0.3425732344388961
1767620483589538000,16.3825380859375,-1.2672863006591797,-1.680929183959961,-0.2095130681991577,16.382830322265626,0.1227839142084121,1.1374311447143557,-1.8368717432022097,-0.8698004126548767,-1.0215222358703613,-1.6226279258728027,-1.7547714710235596,0.48991394639015196,0.1451415836811065
1767620483629642200,16.422642333984374,-0.7438445091247559,-1.615616798400879,-1.477954387664795,16.42293359375,-0.1496619880199432,0.7238753437995911,-1.883297562599182,-0.7786470770835876,-0.5049293518066407,-1.286274528503418,-1.78934645652771,0.293459677696228,-0.004886919260025069
1767620483669747500,16.46274755859375,-1.2475337982177734,0.6646890640258789,-0.7589821219444275,16.4630390625,-0.2058615833520889,-0.3793473243713379,-1.835039138793945,-1.0930765748023987,-0.3147113800048828,-0.7593968391418457,-1.858496403694153,0.05729917287826534,-0.0784350968897343
1767620483709850600,16.5028505859375,-0.8088326454162598,0.4624414443969726,-1.0386052131652832,16.50314208984375,-0.1423316001892089,-0.6627888083457947,-1.8332066535949707,-1.5274965167045593,0.3138787269592285,-0.4335458278656006,-1.8481117010116577,-0.29150489568710336,-0.10201449533924463
1767620483749962000,16.5429619140625,0.2705130577087402,0.5958585739135742,-1.98032808303833,16.543253662109375,-0.0171042270958423,-0.5326744914054871,-1.9040669202804563,-1.4130382895469666,0.8486100196838379,0.031096720695495607,-1.7815273761749268,-0.5918062567710878,-0.11056660851463677
1767620483790064000,16.583064208984375,0.3619687557220459,1.4620213508605957,-2.381612777709961,16.583355712890626,0.0048869219608604,-0.6065891981124878,-1.784948229789734,-1.7377273559570312,0.7427197456359863,0.5032860994338989,-1.672549033164978,-0.6167295575141908,-0.1029918803833425
1767620483830180000,16.62318017578125,1.579368233680725,1.058039665222168,-0.905663251876831,16.6234716796875,-0.192422553896904,-0.7776314616203308,-1.5503759384155271,-1.8664713621139526,0.7712687492370606,0.8361385703086853,-1.5319278478622436,-0.6152634739875794,-0.11154399355873468
1767620483870284300,16.6632841796875,1.1134130954742432,0.1352376937866211,-2.382427453994751,16.663575927734374,-0.1679879426956176,-0.503963828086853,-1.2901474237442017,-1.8237258672714234,0.6926508903503418,0.9851192116737366,-1.3712702989578247,-0.6170960664749147,-0.17690657442435626
1767620483910389500,16.703389404296875,0.8554297089576721,0.6051864624023438,-1.68232524394989,16.7036806640625,-0.1850921660661697,-0.655458390712738,-1.1301007270812988,-1.8240379095077515,0.33280162811279296,1.1784048199653625,-1.240545129776001,-0.5715255200862885,-0.23738223314285278
1767620483950502400,16.74350244140625,1.0154162645339966,0.2027692794799804,-1.7666006088256836,16.74380810546875,-0.3439171314239502,-0.5418374538421631,-1.1007791757583618,-2.1770865678787232,-0.2022552490234375,1.365874421596527,-1.139508032798767,-0.4773301005363465,-0.21795671731233596
1767620483990619400,16.783619384765625,1.3283967971801758,-0.3372249603271484,-2.3831729888916016,16.783910888671876,-0.2974913716316223,-0.3787364661693573,-1.1313223838806152,-2.3474447965621947,-0.7105306625366211,1.8153298258781434,-1.0488556265830993,-0.4519181072711945,-0.18264870606362824
1767620484030717000,16.823717041015627,2.516716241836548,-1.6172447204589844,-2.6709065437316895,16.824008056640626,-0.0952949747443199,-0.3066543638706207,-1.045190453529358,-2.6883761405944826,-1.5721614837646485,2.4251322984695434,-0.9143430948257446,-0.39816197156906136,-0.14868459906429057
1767620484050764800,16.843764892578125,3.360690116882324,-2.406139373779297,-3.23421859741211,16.84410107421875,0.0085521135479211,-0.3769038617610931,-0.836885392665863,-2.0838919162750242,-1.300703525543213,1.297081470489502,-0.44605379104614257,-0.6217386603355408,0.0007330397143959555
1767620484070824000,16.863823974609375,3.904442071914673,-3.702967643737793,-3.386981964111328,16.864115234375,-0.0152716310694813,-0.3866777122020721,-0.4575380682945251,-1.7704686760902404,-0.9868718147277832,0.20980567932128907,-0.07635815143585205,-0.7875274837017059,0.1523497918620705
1767620484511902700,17.30490283203125,-4.624837875366211,1.5600590705871582,1.2558205127716064,17.30519482421875,0.4031710624694824,-1.6597208976745603,1.2406673431396484,-1.5269325375556946,-0.2912112236022949,-0.6255880832672119,0.05021312832832338,-0.8279667615890502,0.31422908548265693
1767620484552029400,17.345029541015624,-4.107982158660889,1.23193359375,-0.8160567879676819,17.34532080078125,0.4605923891067505,-1.207680583000183,0.7171558141708374,-0.2300733208656312,0.07893753051757812,-1.2907725811004638,-0.0002443373203278032,-0.838473641872406,0.33182200398296113
1767620484592105200,17.385105224609376,-1.660252571105957,1.861058235168457,-1.45322585105896,17.38539697265625,0.7141014933586121,-0.5088507533073425,-0.4123340547084808,-0.23575206995010375,0.7368343353271485,-2.7470688819885254,-0.37287213206291203,-0.5126381099224091,0.43762386590242375
1767620484712380200,17.505380126953124,0.0347676277160644,-0.5553956031799316,3.250077486038208,17.50567236328125,0.0965167060494422,-0.4294382631778717,-1.0891727209091189,-0.1876957058906555,-0.4075434684753418,-2.3012794971466066,-1.0130589187145234,-0.07672466635704049,0.38289033919572824
1767620484752455000,17.545454833984376,-3.3770394325256348,-0.4134836196899414,-3.4153757095336914,17.54574609375,0.513737678527832,1.2424999475479126,-2.3206770420074463,-0.00992268323898316,-0.9512164115905761,-1.9395549774169922,-1.6630195558071137,0.5169141829013824,0.31874948889017096
1767620484792532200,17.5855322265625,-2.395890951156616,-4.161829948425293,1.4961023330688477,17.585823486328124,0.1295034289360046,0.5198463201522827,-1.960266590118408,0.2785829365253448,-1.7431130409240723,-1.942423439025879,-2.076208806037903,0.8978497445583343,0.13267993181943888
1767620484832605400,17.62560546875,-2.2993595600128174,-1.486431121826172,0.0728083252906799,17.625896728515624,0.1398881375789642,1.7605136632919312,-2.5326473712921143,-0.5254225194454193,-1.2542211532592773,-2.162579822540283,-2.2856133937835694,1.0235658109188077,0.023823747038841204
1767620484872691700,17.665691650390624,-1.6745948791503906,-2.098424911499023,-0.0106977522373199,17.6659833984375,-0.2162462919950485,1.395827054977417,-2.4782803058624268,0.17551923394203187,-0.5185214042663574,-1.531931495666504,-2.3105367183685304,0.912143987417221,-0.16945401728153234
1767620484912784400,17.705784423828124,-1.066014289855957,1.889063835144043,-0.7699497938156128,17.706076171875,-0.4477642178535461,0.1991420686244964,-2.136195659637451,-0.27288957238197326,0.9316619873046875,-1.0161196708679199,-2.4257459163665773,0.9695653259754181,-0.2912605494260788
1767620484952908000,17.745907958984375,-0.2237977981567382,3.265015125274658,0.0893330574035644,17.74619921875,-0.4526511430740356,0.685390830039978,-2.445293664932251,-0.8213111579418182,1.6131509780883788,-0.44055473804473877,-2.3616050720214843,0.6965085566043853,-0.41037926971912386
1767620484972948200,17.7659482421875,0.1831681728363037,3.0890870094299316,-0.745941698551178,17.76628564453125,-0.4795292317867279,0.8069530129432678,-2.5363125801086426,-1.0392417073249818,2.138407516479492,0.017992377281188986,-2.190440630912781,0.4660901933908462,-0.43408084511756895
1767620484992995000,17.7859951171875,0.5784651041030884,1.9210138320922852,-2.669299602508545,17.786286865234374,-0.455705463886261,0.3952298164367676,-2.2119431495666504,-0.8643131494522095,1.797947883605957,0.5737921714782714,-1.95965576171875,0.44165558367967594,-0.4258952498435974
1767620485033100000,17.82610009765625,0.618140697479248,0.527857780456543,-1.1003504991531372,17.82639111328125,-0.3347541689872741,0.2437352389097213,-1.6224581003189087,-1.1166800737380982,1.014211940765381,0.797459626197815,-1.5979013442993164,0.4409225419163702,-0.3803247034549713
1767620485073194800,17.86619482421875,1.7129846811294556,0.1867656707763672,0.1046929955482482,17.866486328125,-0.4068362414836883,0.0769690200686454,-0.9822713136672974,-1.3556501507759093,0.3057268142700195,0.7385952204465867,-1.1834903478622436,0.37910297662019715,-0.31801644563674925
1767620485113300500,17.906300537109374,0.894539475440979,-0.6536645889282227,-1.172501564025879,17.9065927734375,-0.2247984111309051,0.6817256212234497,-0.636521577835083,-1.2560980916023254,0.005396652221679676,0.7098785907030105,-0.8420166611671448,0.3258355274796484,-0.24288002252578736
1767620485153408800,17.94640869140625,-0.1111538559198379,-0.453338623046875,-1.9407920837402344,17.94669921875,-0.1679879426956176,0.4978551864624023,-0.4642575979232788,-1.1289930939674377,-0.08578681945800783,0.8034794837236404,-0.6166073858737946,0.2831971321254967,-0.20121901035308837
1767620485193515300,17.986515380859377,0.4348819553852081,0.4193630218505859,-2.171539306640625,17.986806396484376,-0.0800233483314514,0.128892570734024,-0.504574716091156,-1.40275719165802,-0.2894412994384766,0.7601484090089798,-0.510927700996399,0.30567697472870337,-0.14807373583316802
1767620485233622800,18.026622802734376,1.0861451625823977,0.0719404220581054,-0.4648255109786987,18.0269140625,-0.1264491081237793,0.0305432621389627,-0.4954117238521576,-1.4443881273269654,-0.6911046981811524,0.9520136386156082,-0.4278500288724899,0.21783455200493324,-0.10726793743669989
1767620485273734000,18.06673388671875,1.4963293075561523,-0.8315067291259766,-1.264127492904663,18.067025634765624,-0.1411098688840866,0.1893682330846786,-0.4538728892803192,-1.6968260049819945,-1.6758939743041992,1.5704767286777497,-0.25045475661754607,0.10311405695974814,-0.10421361066401007
1767620485313844500,18.106844482421874,1.853865623474121,-2.6619815826416016,-1.3806562423706057,18.10713623046875,-0.0207694191485643,0.242513507604599,-0.221133217215538,-1.4913042545318604,-2.7008827209472654,1.9778681755065919,0.33402113020420077,-0.04288273416459572,-0.07354817576706413
1767620485353916200,18.146916259765625,2.981161594390869,-5.377285003662109,-3.202981472015381,18.147208740234376,-0.1527163088321685,-0.0757472887635231,0.4227187633514404,-1.0239456415176391,-1.5351770401000977,0.9052183628082275,0.9766513913869858,-0.3252246543765069,0.04715879969298835
1767620485434080000,18.227080078125,2.471839189529419,-4.705580711364746,-1.1439305543899536,18.22737158203125,0.0733038261532783,-0.6010913848876953,2.417804718017578,-0.7854441642761231,-0.9892717361450195,-0.5061819553375244,1.4675426989793778,-0.6288246765732766,0.07330383155494925
1767620485674622200,18.467622314453124,-4.277103900909424,5.900468826293945,1.8719675540924072,18.4679140625,0.4770857691764831,-1.3811663389205933,2.7177395820617676,-0.5341891407966614,-0.029955196380615234,-2.0802841663360594,1.9118860721588136,-0.9430537536740303,0.07538077346980569
1767620485714707500,18.50770751953125,-5.560672283172607,1.898019790649414,-0.0716201066970825,18.50799853515625,-0.0103847095742821,-1.32863187789917,2.0005836486816406,0.22813706398010253,1.4949363708496093,-3.7910702228546143,2.1094398975372313,-1.129489827156067,0.08918632678687569
1767620485734782700,18.52778271484375,-6.016645431518555,2.13460111618042,-0.1243811249732971,18.50799853515625,-0.0103847095742821,-1.32863187789917,2.0005836486816406,0.5724653482437134,2.6970041275024412,-4.908997440338135,1.694662380218506,-1.0488556176424026,0.06951646655797958
1767620485754835200,18.54783520507813,-5.572768688201904,2.2471728324890137,0.6086495518684387,18.548126708984373,-0.0836885422468185,-1.007927656173706,1.4104878902435305,0.057976138591766355,1.7253604888916017,-4.240223789215088,1.0197784304618835,-0.8208807051181793,-0.004886922240257263
1767620485794926300,18.58792626953125,-3.1177968978881836,1.304758071899414,0.5777108669281006,18.588218017578125,-0.0250454749912023,-0.197920337319374,0.3439171314239502,-0.348173463344574,1.3347651481628418,-2.5265246391296388,0.438967764377594,-0.602557471394539,0.05986479241400956
1767620485835007000,18.628007080078124,-0.9332356452941896,1.042250633239746,-0.7004784941673279,18.6282978515625,0.1050688251852989,-0.2412917762994766,-0.656680166721344,0.20420653820037843,0.2188715934753418,-1.9741519927978515,-0.1527163028717041,-0.2031737834215165,0.16249015666544436
1767620485875105800,18.668105712890625,3.0078234672546387,-0.0549569129943847,-2.102368116378784,18.66839794921875,0.313373863697052,-0.2370157092809677,-0.9034696817398072,0.4161155343055725,-1.1424801826477051,-0.7679216384887695,-0.6819699525833129,0.008307764679193426,0.14526375867426392
1767620485915189800,18.708189697265624,-3.254782199859619,-3.44486665725708,2.637518882751465,18.708481689453127,0.5027421116828918,0.6682865619659424,-0.95783668756485,0.3919861435890198,-1.3348624229431152,-0.5159008979797364,-1.1902098417282105,0.2736676223576068,0.19303341954946512
1767620485955274800,18.74827465820313,0.4583830833435058,-4.559586048126221,1.6681945323944092,18.748566650390625,-0.1698205322027206,0.0494800843298435,-1.2357803583145142,0.7735040664672852,-1.9668641090393066,-0.45290184020996094,-1.5259413838386535,0.5505117453634738,0.15454890877008434
1767620485995365000,18.788365234375,-1.8576931953430176,0.3428468704223633,0.4570639133453369,18.78865673828125,0.2138028293848037,1.1288789510726929,-2.197282314300537,1.266298806667328,-2.5507152557373045,-1.57985258102417,-1.8297857642173767,0.8927184589207172,0.05803220123052595
1767620486035460600,18.828460693359375,-0.6182403564453125,-2.117757797241211,1.207111120223999,18.8287529296875,-0.087353728711605,1.1429288387298584,-2.3353378772735596,0.7445030033588409,-2.057761287689209,-1.28748459815979,-2.1173811197280883,1.0952813871204854,-0.10421360880136492
1767620486075557000,18.86855712890625,-2.6269302368164062,-2.974212646484375,0.3616055846214294,18.86884912109375,-0.16920967400074,1.474017858505249,-2.422691583633423,0.18347931504249573,-0.88218994140625,-1.627278709411621,-2.3542746543884276,1.2914912939071654,-0.14526375383138662
1767620486115655000,18.90865502929687,-1.7929422855377195,-0.9800968170166016,0.0285398662090301,18.9089462890625,-0.3084869384765625,1.6811012029647827,-2.395813465118408,0.0027446210384368896,-0.45550832748413084,-1.4226815223693847,-2.389949178695679,1.2073140621185303,-0.28050931841135024
1767620486155819000,18.94881909179687,-1.2405874729156494,1.3182706832885742,-1.136923909187317,18.949110595703125,-0.375071257352829,1.0305296182632446,-2.420248031616211,-0.5830807507038116,0.5070488929748536,-1.3895252704620362,-2.3980125904083254,1.120326852798462,-0.35552357137203217
1767620486195900200,18.988900146484376,-0.8347072601318359,2.476254940032959,-0.4466095566749573,18.98919189453125,-0.4624249935150146,0.7079927921295166,-2.375654935836792,-1.1091243922710419,1.574815273284912,-0.8521255493164063,-2.339125156402588,0.8991936326026917,-0.415144020318985
1767620486215937800,19.008937744140624,-0.4524590969085693,2.695028305053711,-1.7220157384872437,18.98919189453125,-0.4624249935150146,0.7079927921295166,-2.375654935836792,-1.1594501048326493,2.0263060569763183,-0.3181553840637207,-2.1745580673217773,0.5897292912006378,-0.4350582301616669
1767620486235987000,19.028987060546875,0.0600683689117431,2.364619255065918,-2.2686126232147217,19.0292783203125,-0.4673119187355041,0.3683517575263977,-2.1282544136047363,-0.9601900428533554,1.7979416847229004,0.22990705966949462,-1.9044334650039674,0.449352467060089,-0.45301766991615294
1767620486276079000,19.0690791015625,0.876908540725708,1.2773571014404297,-0.2230886965990066,19.06937060546875,-0.4080579876899719,0.1337794959545135,-1.5729780197143557,-1.0093057721853256,1.2132801055908202,0.5727278709411621,-1.5655254244804382,0.41257838010787956,-0.42833871245384214
1767620486316177200,19.10917724609375,1.4997247457504272,0.1764488220214843,-0.1406235992908477,19.109468994140624,-0.4648684561252594,0.3286454975605011,-1.0696250200271606,-1.1147154182195664,0.6620189666748046,0.7263081908226013,-1.1884993970394135,0.31630602180957784,-0.4125783860683441
1767620486356286000,19.149285888671876,0.8793967962265015,-0.4470529556274414,-0.6921882033348083,19.149577392578124,-0.3390302062034607,0.5241223573684692,-0.6811147332191467,-1.0102139800786971,0.007271003723144531,0.7949227690696716,-0.8576547980308533,0.221866251528263,-0.3483153611421585
1767620486396404700,19.18940478515625,0.3154425024986267,-0.0612773895263671,-2.2490639686584473,19.18969604492187,-0.3836233615875244,0.2266310006380081,-0.4905247986316681,-1.1999226987361908,-0.4691473007202148,1.0401177763938905,-0.6548475384712219,0.155281938612461,-0.2811201840639114
1767620486436521500,19.229521484375,0.4031412601470947,-0.9091205596923828,-1.746105432510376,19.229812744140624,-0.1459967941045761,-0.1038470938801765,-0.4740314185619354,-1.4306101202964783,-1.046583366394043,1.269155466556549,-0.5037194788455963,0.09651670306920998,-0.1627344995737076
1767620486476630300,19.26963037109375,2.1028835773468018,-1.1047344207763672,-1.1716322898864746,19.26992138671875,-0.0720821022987365,-0.1991420686244964,-0.5589417219161987,-1.8228065013885497,-2.2246639251708986,1.7168155550956725,-0.2625498831272125,-0.004153884574771004,-0.11826351135969164
1767620486516702200,19.3097021484375,2.6449131965637207,-2.710731506347656,-1.2940607070922852,19.309993896484375,0.1270599663257599,0.0348193198442459,-0.3139847218990326,-1.4094285845756531,-3.1057167053222656,2.026250457763672,0.3061656475067139,-0.12864821963012224,0.010384704172611215
1767620486556812300,19.349812255859376,3.117697238922119,-6.337455749511719,-2.653170108795166,19.350103271484375,-0.1166752651333808,0.0207694191485643,0.5247332453727722,-1.0693114280700684,-3.9775110244750977,1.8327842235565186,1.0514212548732758,-0.08002334497869021,0.19083429425954818
1767620486636956200,19.4299560546875,1.862617015838623,-4.466541290283203,-0.1821743845939636,19.430247802734375,0.2596177160739898,-0.3958406746387481,2.353052854537964,-0.5904061794281005,-4.59655876159668,1.0110034942626953,1.8136589229106903,-0.012339475378394226,0.3565009459853172
1767620486677033700,19.47003369140625,-0.5641899108886719,-5.268092155456543,-0.0455196499824523,19.47032470703125,0.7562511563301086,0.1392772793769836,3.252246618270874,-0.11429095268249503,-4.458305931091308,-0.03667020797729492,2.3387586951255797,0.1051909986883401,0.4860043808817863
1767620486697101000,19.49010107421875,-2.0060200691223145,-4.199973106384277,1.2228939533233645,19.47032470703125,0.7562511563301086,0.1392772793769836,3.252246618270874,0.6030869007110596,-2.5466023445129395,-1.3700724601745606,2.787500286102295,-0.20830505490303047,0.6583905518054962
1767620486717146600,19.510146728515625,-2.5934553146362305,-2.019467353820801,1.0865154266357422,19.510437744140624,0.7745771408081055,0.6224716901779175,2.311514139175415,0.8443307518959046,-0.7658895492553711,-2.78478889465332,2.8175548553466796,-0.42137484550476084,0.6734178423881529
1767620486837376500,19.63037646484375,-3.549314022064209,3.221062183380127,0.9337191581726074,19.6306689453125,0.7452555894851685,-1.5467108488082886,2.7684412002563477,0.9229343891143799,0.8653242111206054,-3.77562837600708,2.542665481567383,-0.7211875081062318,0.4895474076271057
1767620486877449000,19.670448974609375,-5.210965156555176,4.437022686004639,1.0240448713302612,19.67074072265625,0.3347541689872741,-1.4611896276474,2.5033257007598877,0.8270748376846313,1.9679442405700684,-4.2513984680175785,2.157942533493042,-0.914220929145813,0.3043330699205398
1767620486917523700,19.710523681640623,-5.518387317657471,2.88797664642334,0.3474985361099243,19.71081567382813,-0.1631010174751281,-1.359786033630371,1.8777997493743896,0.6350049853324891,2.4035504341125487,-4.2337493896484375,1.8058398008346557,-1.1095756351947785,0.14306464344263076
1767620486957645600,19.7506455078125,-4.384870529174805,1.313127040863037,0.7435961961746216,19.750937744140625,-0.1698205322027206,-0.8258898258209229,1.32863187789917,0.38679457902908326,1.8746623992919922,-3.7891039848327637,1.1953410923480987,-0.8150164037942886,0.02504547983407972
1767620486997721300,19.790721435546875,-2.5052099227905273,0.1585636138916015,0.1261661648750305,19.791012451171873,-0.0317649915814399,-0.3543018400669098,0.5510004758834839,-0.03588963747024536,1.1628176689147949,-2.6961745262145995,0.5334075272083283,-0.5668829500675202,0.0014660790562629588
1767620487037804000,19.830803955078125,-1.3260869979858398,0.5766220092773438,-0.3073328733444214,19.831095703125,0.1551597714424133,-0.0739146918058395,-0.2840523421764374,-0.6534514784812927,0.21930627822875975,-0.6210983276367188,0.08466591835021973,-0.16749925017356881,0.13720033913850782
1767620487077891300,19.870891357421876,0.2536821365356445,0.8777990341186523,-1.0893762111663818,19.871182861328126,0.2168571650981903,-0.2205223590135574,-0.8063421249389648,-0.8430498123168946,-0.22646808624267578,-0.6164199829101562,-0.5243667364120483,0.11887437701225272,0.18533651977777477
