time,seconds_elapsed_x,accel_z,accel_y,accel_x,seconds_elapsed_y,gyro_z,gyro_y,gyro_x,accel_x_smooth,accel_y_smooth,accel_z_smooth,gyro_x_smooth,gyro_y_smooth,gyro_z_smooth
1767625004557419000,0.1094189453125,0.262308120727539,-0.0129138529300689,0.0088522732257843,0.109705322265625,0.2107485085725784,-0.0036651915870606,0.6401867866516113,,,,,,
1767625004597494000,0.149493896484375,-0.3291339874267578,0.2671823501586914,0.1537019610404968,0.14978076171875,0.394618958234787,-0.4043927788734436,0.6340781450271606,,,,,,
1767625004637579000,0.1895791015625,0.078348159790039,0.0375525206327438,0.214710533618927,0.18987060546875,0.3988949954509735,0.3915646076202392,0.5943718552589417,-0.014744645357131958,0.16715635657310485,-0.6795720100402832,0.4372573420405388,0.35931092845275997,0.39437460005283353
1767625004657619000,0.209618896484375,-1.3918085098266602,0.1403239518404007,-0.2701800763607025,0.20995556640625,0.4428772926330566,0.8857545852661133,0.3830125033855438,0.1902049660682678,0.08261436223983763,-0.8715161323547364,0.17324138134717942,0.5035972952842712,0.37763689160346986
1767625004677669400,0.22966943359375,-2.017573833465576,0.4036368131637573,-0.1808079183101654,0.229960693359375,0.5247332453727722,0.9272934198379515,-0.0653625801205635,-0.2927932024002075,0.025235411524772645,-1.061915111541748,-0.07757988721132278,0.7498981595039368,0.3266907274723053
1767625004717732400,0.269732421875,-0.6974124908447266,-0.435623824596405,1.0336003303527832,0.270024169921875,0.1270599663257599,0.7177666425704956,-0.6798930168151855,-0.27113716006278993,-0.07515031695365906,-1.063598346710205,-0.3655417636036873,0.7801970839500427,0.3249803066253662
1767625004757814800,0.309814697265625,-1.2811288833618164,-0.0197124034166336,-2.26128888130188,0.3101064453125,0.1398881375789642,0.827111542224884,-0.6200281977653503,-0.408829402923584,-0.24699234664440156,-1.0899867057800292,-0.5905845180153847,0.6884451270103454,0.2862514525651932
1767625004797902000,0.349902099609375,0.0699319839477539,-0.4643761217594147,0.322990745306015,0.35019384765625,0.3903428912162781,0.543059229850769,-0.8454375267028809,-0.5125320136547089,-0.618456456065178,-0.7680604934692383,-0.8197811603546142,0.5739689826965332,0.2769663006067276
1767625004837979600,0.389979736328125,-1.5237503051757812,-0.7188861966133118,-0.9586412906646729,0.39027099609375,0.2492330223321914,0.4269948005676269,-0.7422012686729431,-0.8299011886119843,-0.806321558356285,-0.6344257354736328,-0.9105557441711426,0.5395161867141723,0.39755110442638397
1767625004878055200,0.43005517578125,-0.4079427719116211,-1.4536837339401243,-0.6993209719657898,0.430347412109375,0.4783074855804443,0.3549126982688904,-1.2113457918167114,-0.6125853717327118,-1.1355179727077485,-0.49186058044433595,-1.0418917775154113,0.4434881687164306,0.5086064010858535
1767625004918135800,0.4701357421875,-0.0292387008666992,-1.374949336051941,-0.5532455444335938,0.470427978515625,0.7299839854240417,0.5455026626586914,-1.1337659358978271,-1.0625084519386292,-1.4830458283424377,-0.6507869720458984,-1.128145945072174,0.4042706131935119,0.5695707470178604
1767625004958200800,0.510200927734375,-0.568303108215332,-1.6656944751739502,-1.1747097969055176,0.51049267578125,0.6951646208763123,0.3469714522361755,-1.2767083644866943,-0.5567875981330872,-0.9628887176513672,0.36032171249389655,-1.289047861099243,0.8045095086097718,0.6806260466575622
1767625004978245000,0.5302451171875,-0.7246999740600586,-2.2020153999328613,-1.926624655723572,0.51049267578125,0.6951646208763123,0.3469714522361755,-1.2767083644866943,-0.18333671092987064,-0.2439408540725708,1.191837215423584,-1.2923465251922608,1.2152552843093871,0.6936985611915588
1767625005238752800,0.790752685546875,3.531793117523194,1.881899356842041,1.569962978363037,0.79104443359375,0.8045095205307007,2.428189277648926,-1.5467108488082886,0.12206833362579342,0.47365603446960447,1.8329328536987304,-1.242988610267639,1.5354708433151245,0.6070778667926788
1767625005258791700,0.810791748046875,3.749634742736816,2.1410555839538574,1.167933464050293,0.81112890625,0.5436700582504272,2.408641576766968,-1.227839112281799,0.29919064044952387,1.1756953716278076,2.2145386695861817,-1.1490375399589539,1.8660711169242858,0.5182580649852753
1767625005278850000,0.83085009765625,3.176239490509033,2.2130351066589355,0.9737796783447266,0.831141357421875,0.2968805134296417,2.146580457687378,-0.8869763612747192,0.5102394104003907,1.8571868419647217,2.4835277557373048,-1.0516656160354614,2.1502456188201906,0.44996333718299864
1767625005298892300,0.850892333984375,1.3397259712219238,1.8445022106170657,-0.2890982627868652,0.8512294921875,0.2510656118392944,1.9999728202819824,-0.8069530129432678,0.12760162353515625,1.7286040782928467,1.8930821418762207,-0.9106779098510742,1.8936822414398193,0.3539353191852569
1767625005318936300,0.870936279296875,0.6202454566955566,1.205441951751709,-0.8713808059692383,0.871228759765625,0.3536909818649292,1.7678439617156982,-0.7898487448692322,0.16594018936157226,1.697691059112549,1.46394624710083,-0.8262563347816467,1.5667471766471863,0.27012460976839064
1767625005338984200,0.890984130859375,0.5795650482177734,1.238985538482666,-0.3432259559631347,0.89132080078125,0.3243694305419922,1.1453723907470703,-0.8417723178863525,0.49037532806396483,1.6631151676177978,0.6563900947570801,-0.7061602234840392,1.332419276237488,0.059620441496372224
1767625005359023600,0.911023681640625,1.6039552688598633,1.986490488052368,1.359626293182373,0.91131494140625,0.1246165111660957,0.7739662528038025,-0.8057312369346619,-0.06414451599121093,1.1264751434326172,0.6310464859008789,-0.5229006454348564,1.3513561010360717,0.009040799969807264
1767625005399092200,0.95109228515625,-0.8615412712097168,2.0401556491851807,2.5959553718566895,0.951384033203125,-0.7556403279304504,0.9749409556388856,-0.2864958047866821,0.1986766815185547,0.9074950218200684,0.6363231182098389,-0.36786304973065853,1.2356582403182983,-0.07990118092857301
1767625005439145500,0.9911455078125,1.213007926940918,-0.8386979103088379,-3.061697483062744,0.99143701171875,-0.0018325957935303,2.0946569442749023,0.1093448773026466,-0.1569199562072754,0.5003498077392579,0.7439874172210693,-0.1679879393428564,1.10371133685112,-0.2649933440145105
1767625005479205600,1.03120556640625,0.6466286182403564,0.1105413436889648,0.4427251815795898,1.03149755859375,-0.0910189226269722,1.189354658126831,-0.0146607663482427,-0.17991256713867188,0.2186220645904541,0.41875510215759276,-0.018936823680996896,1.0693807184696198,-0.4276056764181703
1767625005519274800,1.071274658203125,1.1178865432739258,-0.7967405319213867,-2.121209144592285,1.071566650390625,-0.6010913848876953,0.4856378734111786,0.157603234052658,-0.3361207962036133,0.19661302566528324,0.4813202381134033,-0.009040804579854022,1.0124480783939362,-0.4269948122557253
1767625005559332900,1.111332763671875,-0.0222063064575195,0.5778517723083496,1.2446632385253906,1.111624267578125,-0.6884451508522034,0.6023131608963013,-0.0604756586253643,0.5094950675964356,0.562191104888916,0.23850538730621337,-0.09321803785860537,0.6731735169887543,-0.5510004535317421
1767625005719568000,1.27156787109375,-0.5487155914306641,1.9301104545593264,1.8149142265319824,1.271859619140625,-0.7525860071182251,0.6902777552604675,-0.2370157092809677,0.32959232330322263,0.17394428253173827,0.30571448802948,-0.14624113962054253,0.5312084317207336,-0.6075665771961212
1767625005739597800,1.291597900390625,-0.0010663270950317,0.9891924858093262,1.1663818359375,1.2919345703125,-0.6218608021736145,0.3982841372489929,-0.3115412890911102,0.34392528533935546,-0.2899359703063965,0.17396523952484133,-0.19266689792275427,0.4649906396865845,-0.4820948589593172
1767625005759648300,1.311648193359375,0.9826741218566896,-1.830692768096924,-0.4567885398864746,1.311939697265625,-0.3738495409488678,0.4795292317867279,-0.2797762751579284,-0.05373821258544922,-0.9580974578857422,0.05982989072799685,-0.11129964739084244,0.40207151174545286,-0.3536909807473421
1767625005799710200,1.351710205078125,0.4591403007507324,-3.1161417961120605,-2.049544334411621,1.352001953125,0.0262672062963247,0.1545489132404327,-0.0745255574584007,-0.37994966506958006,-1.6796124458312989,0.11992996931076053,0.0147829368710518,0.26792549826204776,-0.2488665003329515
1767625005819737900,1.37173779296875,-0.5928830504417419,-2.762955665588379,-0.7436542510986328,1.37207421875,-0.0464257597923278,0.2877175211906433,0.3463605940341949,-0.8587871074676514,-2.374838447570801,0.2662626624107361,-0.00452040284872055,0.12877039648592473,-0.16823229081928726
1767625005839772000,1.39177197265625,-0.2482151985168457,-1.677464485168457,0.1838569641113281,1.392063720703125,-0.2284636050462722,0.0195476878434419,0.3933972120285034,-1.3019477367401122,-1.70803804397583,0.5340328574180603,0.012583823502063751,0.002565634623169888,-0.14147639162838455
1767625006180302000,1.732302001953125,0.7305971384048462,-2.4869375228881836,-1.2278053760528564,1.732638427734375,-0.2186897546052932,-0.2974913716316223,-0.4080579876899719,-1.3268252849578857,-0.9305707931518554,0.5741615533828736,0.04141666293144225,-0.07990117631852627,-0.19315559267997737
1767625006200336400,1.75233642578125,2.3215250968933105,1.5033092498779297,-2.6725916862487793,1.75262744140625,-0.2400700449943542,-0.1514945775270462,-0.1942551434040069,-1.6920591831207275,-0.16122570037841796,0.71377435028553,0.02003637850284575,-0.15955800227820874,-0.22467623949050894
1767625006220363000,1.772363037109375,0.6597837805747986,0.7711944580078125,-2.1739320755004883,1.772698974609375,-0.2321287989616394,-0.2577851414680481,0.0696386396884918,-1.4166776657104492,0.24095630645751953,1.3685907870531082,0.24043656885623932,0.15027285665273668,-0.13487904667854306
1767625006240409900,1.792409912109375,0.1051809340715408,1.0837697982788086,-2.569823741912842,1.79270166015625,-0.2040289938449859,-0.110566608607769,0.2394591718912124,-1.3301993608474731,0.38396167755126953,0.8931792289018631,0.6211277991533279,0.5235115274786949,-0.04703662395477294
1767625006280488700,1.83248876953125,3.025866985321045,0.3334455490112304,1.5607645511627195,1.832780517578125,0.2205223590135574,1.568701982498169,1.4953981637954712,-0.7512431859970093,0.20242462158203126,0.47497390806674955,0.5766568094491958,0.4555833116173744,0.00513126887381076
1767625006300523800,1.852523681640625,-1.6464606523513794,-1.7719106674194336,-0.7954138517379761,1.832780517578125,0.2205223590135574,1.568701982498169,1.4953981637954712,-0.45159196853637695,0.6128808975219726,0.1336476594209671,0.598892304301262,0.41306709200143815,-0.0142942424863577
1767625006320558600,1.87255859375,0.2304984927177429,0.5956239700317383,0.22218918800354,1.872850341796875,0.0207694191485643,-0.4911356568336487,-0.4166100919246673,0.17667583227157588,0.5678054809570312,0.28429909944534304,0.8252789676189423,0.22675319910049438,0.13280211128294467
1767625006400682000,1.952681884765625,-1.0468474626541138,2.8234758377075195,-0.6756759881973267,1.9529736328125,-0.3292563557624817,-0.4703662395477295,0.180816113948822,0.18132804632186889,0.1698202133178711,-0.037809479236602786,0.44788641333580026,-0.18240435123443605,0.0031765077263116726
1767625006480818200,2.032818115234375,0.8584381341934204,0.8583927154541016,0.5715152621269226,2.03310986328125,0.5314527750015259,-1.0421360731124878,1.3713924884796145,-0.07246154546737671,0.3689422607421875,0.5086352467536926,0.045204037427902265,-0.5455026596784591,-0.13316861353814602
1767625006681176800,2.2331767578125,1.415324091911316,-1.6564807891845703,1.5840256214141846,2.233469482421875,-0.4276056587696075,-0.4770857691764831,-0.3915646076202392,-0.16083613634109495,0.29970664978027345,0.7846232175827026,0.11985176950693135,-0.4748866379261017,-0.1871691018342972
1767625006701212000,2.2532119140625,1.0857629776000977,-0.7763004302978516,-2.064361810684204,2.253548583984375,-0.4612032473087311,-0.2467895597219467,-0.5180137157440186,-0.06316638588905332,-0.7097030639648437,1.21254620552063,0.20463986545801166,-0.4322482407093048,-0.1396437883377075
1767625006721265000,2.273264892578125,1.610438346862793,0.2494459152221679,-0.2196837663650512,2.273556396484375,-0.2492330223321914,-0.1380555480718612,-0.0433714315295219,-0.12251830697059632,-1.0998178482055665,1.0728848934173585,0.01747075468301773,-0.3269350826740265,-0.23310617357492447
1767625006761338400,2.31333837890625,1.0927674770355225,-2.2235727310180664,-0.1873272359371185,2.313629638671875,-0.0916297882795333,-0.2571742534637451,0.6047565937042236,-0.5902574241161347,-0.8535068511962891,0.8885898113250732,0.16933185011148452,-0.2879618763923645,-0.19682077914476395
1767625006801410000,2.35341015625,0.160131573677063,-1.0921812057495115,0.2747556567192077,2.353702392578125,0.0641408488154411,-0.5155702829360962,0.4355469346046448,-0.34706732630729675,-0.6638879776000977,0.8593110561370849,0.2995683178305626,-0.31447342932224276,-0.13133602887392043
1767625006881562400,2.433562255859375,0.4938486814498901,-0.4249258041381836,-0.7546699643135071,2.433853515625,-0.2461786866188049,-0.2822197377681732,0.3677408695220947,-0.41891894936561586,-0.6310178756713867,0.7224020481109619,0.3181386210024356,-0.3381749987602234,-0.09676105529069898
1767625006921641200,2.47364111328125,0.9393692016601562,0.1717939376831054,-0.8484113216400146,2.473933349609375,-0.1337794959545135,-0.3793473243713379,0.1331686228513717,-0.5357159018516541,-0.06575717926025389,0.6519722938537598,0.19804251361638303,-0.338297176361084,-0.09309586286544796
1767625006941685000,2.49368505859375,0.9258933067321776,0.4137964248657226,-0.5789418816566467,2.49402197265625,-0.0763581544160842,-0.2565633952617645,0.0494800843298435,-0.7323227643966674,0.28238353729248045,0.7464248895645141,0.11178833805024617,-0.2867401480674744,-0.12058479785919185
1767625006961750000,2.51375,0.7406187057495117,0.6027307510375977,-0.7713119983673096,2.51404248046875,-0.0733038261532783,-0.2577851414680481,0.0042760567739605,-0.721692681312561,0.4614692687988281,0.7167733669281006,0.007208209857344572,-0.2956587791442871,-0.0626747742295265
1767625006981799000,2.533798828125,0.632394552230835,0.6485223770141602,-0.7082786560058594,2.51404248046875,-0.0733038261532783,-0.2577851414680481,0.0042760567739605,-0.5712588906288147,0.4533992767333984,0.6403524875640869,-0.08478809334337714,-0.3202155590057373,-0.01747074425220489
1767625007001852200,2.55385205078125,0.3455910682678222,0.4705028533935547,-0.7015195488929749,2.554143310546875,0.0433714315295219,-0.3268128931522369,-0.1551597714424133,-0.44460328817367556,0.3893655776977539,0.5600125789642334,-0.17177530340850358,-0.34220671057701113,0.027488937973976113
1767625007041943000,2.593943115234375,0.5572648048400879,0.131443977355957,-0.0962423682212829,2.59423583984375,0.0922406539320945,-0.5021312236785889,-0.3268128931522369,-0.27649707794189454,0.33202438354492186,0.49226121902465814,-0.254730804823339,-0.3439171314239502,0.07244861871004102
1767625007082035700,2.63403564453125,0.5241937637329102,0.0936279296875,0.054336130619049,2.634327392578125,0.1484402567148208,-0.3665191531181335,-0.3854559659957886,-0.011951708793640159,0.26557197570800783,0.41564812660217276,-0.3374419569969177,-0.328034633398056,0.11215485930442806
1767625007102080300,2.654080322265625,0.4018619060516357,0.3160247802734375,0.0692190527915954,2.654417724609375,0.1514945775270462,-0.2663372457027435,-0.4105014503002167,0.28943418264389037,0.22211742401123047,0.3691182613372802,-0.3839898884296417,-0.26633724607527254,0.12559389472007748
1767625007122109000,2.67410888671875,0.2493290901184082,0.3162603378295898,0.6144481897354126,2.67440087890625,0.1252273768186569,-0.1783726513385772,-0.4092797040939331,0.444797945022583,0.27783718109130856,0.0896898031234741,-0.4102570950984955,-0.13487904705107207,0.12461650967597956
1767625007142158000,2.694157958984375,0.1129417419433593,0.2532300949096679,0.8054099082946777,2.6944951171875,0.110566608607769,-0.0183259565383195,-0.3878994286060333,0.4463245034217834,0.14114704132080075,-0.3428481101989746,-0.44470989108085635,0.017226397618651423,0.12486085593700405
1767625007162215200,2.714215087890625,-0.8398774862289429,0.4100427627563476,0.6805764436721802,2.714507080078125,0.087353728711605,0.1551597714424133,-0.4581489264965057,0.6244628429412842,-0.07930011749267582,-0.6276537179946899,-0.46780059337615965,0.13451252542436123,0.12412781715393062
1767625007202307300,2.754307373046875,-1.6384958028793335,-0.5898227691650391,0.0619689226150512,2.7545986328125,0.1496619880199432,0.394008070230484,-0.5577199459075928,0.6838103532791138,-0.1749322891235352,-0.7365986108779907,-0.4690223276615143,0.2438574071973562,0.1181413367390632
1767625007222341000,2.774341064453125,-1.022166132926941,-0.7862110137939453,0.9599107503890992,2.774677490234375,0.147829383611679,0.3200933933258056,-0.5259549617767334,0.4409716010093689,-0.17604846954345704,-0.888621187210083,-0.4789183437824249,0.39168679118156435,0.1022588405758142
1767625007242392000,2.79439208984375,-0.2953953742980957,-0.161900520324707,0.9111857414245604,2.79468359375,0.0952949747443199,0.3683517575263977,-0.4153883755207062,0.1738632202148437,-0.34044876098632815,-0.9393353462219238,-0.519113278388977,0.519601970911026,0.11814133711159225
1767625007282492200,2.8344921875,-0.647171139717102,0.2476491928100586,-0.4087838530540466,2.834783935546875,0.0311541277915239,0.720820963382721,-0.4373795092105865,-0.057807660102844285,-0.19095954895019532,-0.7992595553398132,-0.5766567945480346,0.557964313030243,0.15039501972496505
1767625007322595800,2.874595947265625,-1.093448281288147,-0.4119586944580078,-0.6549654603004456,2.874887451171875,0.1667662113904953,0.7947356700897217,-0.6591235995292664,-0.22826259732246407,0.015808677673339832,-0.6386709392070771,-0.6218608260154724,0.5320636242628097,0.1491732914000749
1767625007362669800,2.914669921875,-0.9381168484687804,0.157623291015625,-1.096385478973389,2.9149619140625,0.3109304010868072,0.5858197808265686,-0.8454375267028809,-0.3958138257265091,0.15025138854980466,-0.5777087807655334,-0.6753726184368134,0.499565589427948,0.14734069593250748
1767625007402765600,2.954765625,-0.2192230522632599,0.2476301193237304,0.1076360642910003,2.95505712890625,0.1417207419872284,0.1905899494886398,-0.7519751191139221,-0.33107915520668035,0.1599613189697265,-0.4694463908672333,-0.7154453754425049,0.4068362474441528,0.15320500209927554
1767625007422812000,2.97481201171875,0.0094154179096221,0.5103130340576172,0.073429599404335,2.9751484375,0.0861319974064827,0.2058615833520889,-0.6829473376274109,-0.29066878557205206,0.09947185516357418,-0.21323663592338563,-0.669508308172226,0.29492573738098143,0.13842206373810764
1767625007442875600,2.994875732421875,-0.1058591902256012,0.2961988449096679,-0.0851105004549026,2.995166748046875,0.0604756586253643,0.2571742534637451,-0.6377432942390442,-0.1994509816169739,-0.03253250122070317,-0.14279087185859682,-0.5594303846359253,0.2902831554412842,0.12864821925759312
1767625007482972400,3.034972412109375,0.1876004934310913,-0.7144060134887695,-0.4529136121273041,3.035263671875,0.0928515195846557,0.2351831197738647,-0.4294382631778717,-0.032299548387527466,0.07881145477294918,-0.20550143718719482,-0.47561967372894287,0.41074577867984774,0.14330898299813266
1767625007523058400,3.075058349609375,-0.5858880281448364,-0.5023984909057617,-0.640296459197998,3.075350341796875,0.2620611786842346,0.5626068711280823,-0.2950479090213775,0.01105712950229647,-0.020118522644043013,-0.22462935447692872,-0.4177096486091614,0.5987701058387755,0.15894713327288623
1767625007563152000,3.11515185546875,-0.53277587890625,0.8043498992919922,0.9433932304382324,3.115443359375,0.2150245606899261,0.7929030656814575,-0.33292156457901,-0.02320200204849241,-0.06126708984375003,-0.12995545268058778,-0.3683517396450043,0.7908261418342589,0.16004669070243832
1767625007603222000,3.155221923828125,-0.0862241685390472,0.0156631469726562,0.2902129888534546,3.155513671875,0.1643227487802505,1.1459832191467283,-0.3933972120285034,-0.06724401116371152,0.049711799621582016,0.022256392240524316,-0.35320228338241577,0.9588140845298767,0.12742648571729656
1767625007643318500,3.195318603515625,0.3675103187561035,0.0904560089111328,-0.256406158208847,3.195610107421875,0.0659734457731247,1.217454433441162,-0.3909537494182586,-0.2926539719104766,0.18591270446777342,0.22983570098876954,-0.38777725696563714,1.0379822254180908,0.05705481171607969
1767625007683423200,3.23542333984375,0.9486597180366516,-0.1595115661621093,-0.6731236577033997,3.23571484375,-0.070249505341053,1.0751228332519531,-0.3536909818649292,-0.7248692333698272,0.07642955780029294,0.3401154398918152,-0.4355469226837158,0.9982759833335877,0.006597343832254408
1767625007723517000,3.275516845703125,0.4520085155963897,0.1786060333251953,-1.7673462629318235,3.27580859375,-0.0897971913218498,0.9584475755691528,-0.4679227769374847,-0.9170302093029022,0.07235774993896484,0.42769376635551454,-0.47305405139923096,0.863885623216629,-0.03665191531181333
1767625007763623000,3.315622802734375,0.0186228156089782,0.2569341659545898,-1.2176830768585205,3.315915283203125,-0.0372627787292003,0.5943718552589417,-0.5717698931694031,-1.0025675296783447,0.034339332580566415,0.48699968457221987,-0.49357912540435783,0.7034724116325378,-0.059253929555416064
1767625007783668000,3.33566796875,0.3516674637794494,-0.0046958923339843,-0.6705918908119202,3.336004638671875,-0.0519235469400882,0.4740314185619354,-0.5809328556060791,-1.086850345134735,0.002668952941894531,0.28797330260276793,-0.49199087619781484,0.6052452802658081,-0.04948008507490152
1767625007803828000,3.355827880859375,0.6640399098396301,-0.0996360778808593,-0.6840927600860596,3.356118408203125,-0.047036625444889,0.4153883755207062,-0.4935791194438934,-0.793632960319519,0.015236663818359369,0.2641021370887756,-0.47415361404418943,0.49089130759239197,-0.0348193190991878
1767625007843901400,3.3959013671875,-0.0464721918106079,-0.3178634643554687,-1.0945377349853516,3.396192138671875,-0.0213802829384803,0.5839871764183044,-0.3457497358322143,-0.4876947045326233,-0.15060482025146485,0.3387332439422608,-0.44067819118499757,0.44470990300178526,-0.056566122174262955
1767625007883997400,3.43599755859375,0.3326526880264282,0.2414445877075195,-0.3012593388557434,3.43628857421875,-0.0164933614432811,0.3866777122020721,-0.3787364661693573,-0.2901266932487488,-0.3806427001953126,0.42257453203201295,-0.40121629238128664,0.4620584726333618,-0.06853908076882358
1767625007904043500,3.45604345703125,0.3917783498764038,-0.5722732543945312,0.3120082020759582,3.45637939453125,-0.1459967941045761,0.3634648323059082,-0.4043927788734436,-0.26417272090911864,-0.5291910171508789,0.5311566829681397,-0.35405749678611753,0.5530773937702179,-0.060475659184157794
1767625007924072200,3.476072265625,0.7708739042282104,-1.1548852920532229,0.3172481656074524,3.476363525390625,-0.1117883399128913,0.5607742667198181,-0.3836233615875244,-0.6755496263504028,-0.8982925415039062,0.6917649030685424,-0.2733011096715927,0.5885075747966766,-0.027244590036571
1767625007964165000,3.5161650390625,1.2069506645202637,-0.8423776626586914,-0.5543228983879089,3.51645703125,-0.0067195175215601,0.8704829812049866,-0.2577851414680481,-0.9062164902687073,-1.3792579650878907,0.8965567827224732,-0.10225884020328521,0.5722585558891297,0.0433714309707284
1767625008004261600,3.55626171875,0.7565689086914062,-2.1633710861206055,-3.1514222621917725,3.556569091796875,0.1447750627994537,0.7611380815505981,0.0580321997404098,-0.863141131401062,-1.4083829879760743,1.3139791011810302,0.24434609115123748,0.5596747279167176,0.13952162358909845
1767625008044341800,3.596341796875,1.3566120862960815,-2.1633825302124023,-1.4545936584472656,3.596633056640625,0.3365867435932159,0.3054326176643371,0.4764748811721802,-0.587877070903778,-0.9999505996704101,1.400662612915039,0.7654141396284103,0.44605379793792965,0.2160019541159272
1767625008084398800,3.63639892578125,2.4788899421691895,-0.7178983688354492,0.5273849964141846,3.636690185546875,0.3347541689872741,0.3005456924438476,1.32863187789917,-0.20360338687896729,-0.704349136352539,0.9556793451309205,1.3126272290945054,0.3544240126386285,0.30555480122566214
1767625008124481800,3.676481689453125,1.2042914628982544,0.8872766494750977,1.693568468093872,3.676774169921875,0.2706133127212524,-0.0073303831741213,2.22171688079834,0.1677422285079956,-0.7587167739868164,0.3533986330032349,1.739744210243225,0.13732251022011038,0.39791762828826893
1767625008164582000,3.716581787109375,-1.0179656744003296,0.6356296539306641,1.367045521736145,3.71687353515625,0.4410447180271148,0.4123340547084808,2.4782803058624268,0.19933874607086183,-0.9725912094116211,-0.40124077796936036,2.083172655105591,0.011362100578844537,0.45191811919212344
1767625008204659700,3.75665966796875,-2.2548346519470215,-2.435209274291992,-1.294694185256958,3.756950927734375,0.6065891981124878,-0.3243694305419922,2.193617105484009,0.21036473512649537,-1.3292863845825196,-1.2310027837753297,2.1953275203704834,-0.23945916797965766,0.548312646150589
1767625008224692000,3.77669189453125,-2.4165849685668945,-3.232754707336426,-1.2966110706329346,3.756950927734375,0.6065891981124878,-0.3243694305419922,2.193617105484009,0.14198778867721557,-1.5997705459594727,-1.6862396240234374,2.0922134637832643,-0.46291367411613465,0.6243042767047882
1767625008244731600,3.796731689453125,-1.6699200868606567,-2.5013742446899414,0.5825149416923523,3.797023193359375,0.816726803779602,-0.9535606503486632,1.8894062042236328,-0.16456831693649293,-1.7242136001586914,-1.6577102422714234,1.9128634214401246,-0.7618711352348327,0.6442184805870056
1767625008284814800,3.83681494140625,-1.0718927383422852,-0.4651441574096679,1.3516837358474731,3.83710693359375,0.6505714654922485,-1.1246029138565063,1.7061465978622437,0.04312263727188111,-1.232076644897461,-1.4175917863845826,1.7583145141601562,-0.9071349024772644,0.6354220151901245
1767625008324877600,3.876877685546875,-0.8753187656402588,0.0134143829345703,-0.1657350063323974,3.877169677734375,0.5406157374382019,-1.0824532508850098,1.5815300941467283,0.484290087223053,-0.5521858215332032,-1.2426108121871948,1.5635706663131714,-1.0437243819236754,0.6183177828788757
1767625008344913400,3.896913330078125,-1.0542423725128174,0.0254755020141601,-0.2562394142150879,3.897250244140625,0.5626068711280823,-1.0506882667541504,1.4208725690841677,0.8445326089859009,0.13845634460449216,-1.4735602855682373,1.3607634067535401,-1.059973406791687,0.5100724697113036
1767625008365022200,3.917022216796875,-1.541680097579956,0.1666994094848632,0.9092261791229248,3.917313720703125,0.5210680365562439,-1.007316827774048,1.2198978662490845,0.9975160598754883,0.5789096832275391,-1.7717291355133056,1.0991909146308898,-0.9244834959506989,0.40304888337850564
1767625008405130200,3.957130126953125,-2.824667453765869,0.9518365859985352,2.383727550506592,3.957421875,0.2755002379417419,-1.0348057746887207,0.8753699064254761,1.3941120624542236,0.9552360534667969,-1.8726531982421875,0.7836179341189563,-0.6978524826467037,0.27708847075700754
1767625008445212400,3.99721240234375,-2.562736988067627,1.7371225357055664,2.11660099029541,3.99750390625,0.1154535338282585,-0.4471533596515655,0.3982841372489929,1.5862695217132567,1.28566312789917,-2.0330934047698976,0.443365993630141,-0.46242500767111777,0.06487388759851453
1767625008485280000,4.037280029296875,-1.379939079284668,1.8950462341308592,1.8172450065612793,4.037572265625,-0.0891863256692886,0.0507018156349659,0.0036651915870606,1.4731706976890564,1.6346254348754883,-2.1102904796600344,0.09419542802497745,-0.22760839983820916,-0.15234979242086413
1767625008525352700,4.077352783203125,-1.8564434051513672,1.6776108741760254,0.7045478820800781,4.077644287109375,-0.4984660446643829,0.1264491081237793,-0.280387133359909,1.020457911491394,1.8238306045532227,-1.9028937339782714,-0.24214697824791073,0.04447099044919014,-0.3235142335295677
1767625008545390000,4.09739013671875,-1.9276654720306396,1.911510944366455,0.3437320590019226,4.09772705078125,-0.5650503635406494,0.1667662113904953,-0.5259549617767334,0.6657161116600037,1.6412742614746094,-1.5163262367248536,-0.5985257600434124,0.26438247635960577,-0.44727552831172945
1767625008565423900,4.117423828125,-1.7876837253570557,1.897862434387207,0.12016361951828,4.117715087890625,-0.5803219676017761,0.3255911767482757,-0.8063421249389648,0.2489314556121826,1.100508689880371,-0.9103894710540772,-0.8348084390163422,0.3200933843851089,-0.5059185922145844
1767625008605500400,4.15750048828125,-0.6298995018005371,0.8243408203125,0.3428919911384582,4.157792724609375,-0.50335294008255,0.6524040699005127,-1.3836097717285156,-0.10619235038757324,0.3051142692565918,-0.009895133972167968,-0.8866098165512085,0.29749136976897717,-0.44128904938697816
1767625008645597200,4.19759716796875,1.649744749069214,-0.808781623840332,-0.2666782736778259,4.197888671875,-0.3824016451835632,0.3292563557624817,-1.177748203277588,-0.161583149433136,-0.30327472686767576,1.0936749935150147,-0.7722558453679085,0.25350907258689404,-0.3068986937403679
1767625008685673000,4.2376728515625,2.6460282802581787,-2.299361228942871,-1.0710711479187012,4.23796435546875,-0.1753183305263519,0.0134390350431203,-0.5393940210342407,0.18018507957458493,-0.8575384140014648,1.6625698566436768,-0.6623000994324684,0.12449433021247387,-0.21881192773580552
1767625008725743900,4.277743896484375,3.5901851654052734,-1.1304340362548828,0.0667780637741088,4.278035888671875,0.1069014146924018,-0.0531452745199203,0.0458148941397666,0.3069759011268616,-1.6588436126708985,1.408897829055786,-0.5263214960694313,0.09395106844604015,-0.07904596477746965
1767625008765824000,4.317823974609375,1.0567905902862549,-0.8734560012817383,1.8290047645568848,4.31811572265625,-0.1398881375789642,-0.3194825351238251,-0.2565633952617645,0.7247452735900879,-1.4749505996704102,0.726214075088501,-0.44031167179346087,0.19498817734420298,0.06756169646978374
1767625008825917000,4.3779169921875,-1.8982596397399905,-3.182185173034668,0.9768460988998412,4.37825341796875,0.1954768747091293,0.4996877610683441,-0.7037167549133301,1.4665582180023193,-0.5050539970397949,-0.096300220489502,-0.45717154890298844,0.46376889050006864,0.06291912049055096
1767625008845951000,4.397950927734375,-1.763674020767212,0.1106834411621093,1.8221685886383057,4.398242919921875,0.3506366610527038,0.8344419002532959,-0.7476990818977356,1.301887333393097,-0.07173299789428711,-1.6993520736694336,-0.7073819577693939,0.7114136695861817,0.005131268501281716
1767625008886031000,4.438031005859375,-1.466543197631836,2.550121784210205,2.637993574142456,4.438322509765625,-0.1985312104225158,1.3573426008224487,-0.6236934065818787,0.8265917778015137,-0.24809808731079103,-2.2178554058074953,-0.832487165927887,0.8170933604240418,0.013561208546161638
1767625008926095400,4.478095458984375,-4.425074100494385,1.0361709594726562,-0.7565763592720032,4.478386962890625,-0.1820378452539444,1.1850786209106443,-1.2052371501922607,0.92854745388031,0.4718693733215332,-2.012392556667328,-0.8354193210601807,0.8514239847660064,-0.0015882492065429853
1767625008966232300,4.518232421875,-1.5357260704040527,-1.7552814483642578,-0.5474730134010315,4.51852392578125,-0.0977384373545646,0.2089159190654754,-0.8820894360542297,1.038305401802063,0.454586124420166,-2.0670597434043883,-0.846659243106842,1.0334618389606476,-0.04117231965065004
1767625009006323000,4.558322998046875,-0.870945394039154,0.4176521301269531,1.4866244792938232,4.5586142578125,0.1197295859456062,0.6713408827781677,-0.7183775305747986,0.8363249063491821,-0.09394073486328125,-2.1410468459129333,-0.8728042721748352,1.1685852110385895,0.032620203495025604
1767625009046393900,4.598393798828125,-2.037009954452514,0.0242671966552734,2.3709583282470703,4.598685546875,0.1527163088321685,1.7446311712265017,-0.8038986921310425,1.1292414546012879,-0.321809196472168,-1.4974244236946104,-0.7630928754806519,1.3475687086582184,0.10873401463031765
1767625009066431700,4.618431640625,-1.8364787101745603,-0.1925125122070312,1.6280910968780518,4.618767822265625,0.1704314053058624,2.032959461212158,-0.7544185519218445,1.335583007335663,0.09802207946777344,-1.4407057166099546,-0.696142041683197,1.6853771805763245,0.16334536820650095
1767625009086476500,4.6384765625,-1.206961989402771,-0.1031713485717773,0.7080063819885254,4.63876806640625,0.1985312104225158,2.079996109008789,-0.656680166721344,0.9656090378761292,0.04889144897460938,-1.4788514137268065,-0.6647435665130615,1.8311296224594116,0.17470746338367457
1767625009126584800,4.678584716796875,-1.252132534980774,0.3438749313354492,0.4842347502708435,4.678876220703125,0.1753183305263519,1.897958278656006,-0.5473352670669556,0.3605514645576477,0.07983570098876955,-1.115824830532074,-0.6261368751525879,1.725572109222412,0.16395623534917825
1767625009166683400,4.718683349609375,-1.061673879623413,0.1719989776611328,-0.3632453680038452,4.718975830078125,0.1765400618314743,1.4001030921936035,-0.5613851547241211,0.08952479362487793,0.13243064880371092,-0.7916538119316101,-0.6141639232635498,1.53498215675354,0.146363316476345
1767625009206791400,4.75879150390625,-0.2218770384788513,0.1789884567260742,-0.6543295383453369,4.759083251953125,0.098960168659687,1.216843605041504,-0.6108652353286743,-0.023879444599151627,0.12244529724121093,-0.4688250422477722,-0.6196617007255554,1.2978442788124085,0.09859365299344058
1767625009246891800,4.798891845703125,-0.2156236171722412,0.0704622268676757,0.2729577422142029,4.799183349609375,0.0824668109416961,1.080009698867798,-0.694553792476654,-0.04245592355728152,0.07393283843994138,0.05328372716903691,-0.632734215259552,1.1013900279998778,0.03982841596007344
1767625009286969000,4.838968994140625,0.4071818590164184,-0.1530981063842773,0.1409851908683776,4.839260986328125,-0.0403171069920063,0.8943067193031311,-0.6841690540313721,-0.19383896589279176,-0.053806304931640646,0.48712021112442017,-0.5915619015693665,0.9902125597000122,-0.05082398727536204
1767625009327073300,4.8790732421875,1.3584113121032717,0.1013126373291015,0.3913523554801941,4.879365478515625,-0.1185078546404838,0.9156870245933532,-0.6126978397369385,-0.5051158308982849,-0.17767982482910155,0.675654125213623,-0.5404935717582703,0.9156869888305664,-0.12596041187644005
1767625009367182600,4.9191826171875,1.1075085401535034,-0.4666967391967773,-1.1201605796813965,4.919474853515625,-0.2767219543457031,0.8442157506942749,-0.3555235862731933,-0.9917271852493286,-0.22626228332519532,0.8100975751876831,-0.4735427379608154,0.8544782996177673,-0.1817934952676296
1767625009387226000,4.93922607421875,0.7207925319671631,-0.4403791427612304,-2.2107138633728027,4.919474853515625,-0.2767219543457031,0.8442157506942749,-0.3555235862731933,-1.3739617943763733,-0.20163345336914057,0.8607720971107483,-0.40866885185241697,0.8304102063179016,-0.2130697950720787
1767625009407278300,4.9592783203125,0.4565936326980591,-0.1724500656127929,-2.1600990295410156,4.95956982421875,-0.1966986060142517,0.7739662528038025,-0.3597996234893799,-1.695233988761902,-0.22929668426513666,0.6609070658683777,-0.3374419629573822,0.7977900028228759,-0.20354029834270476
1767625009427321000,4.979321044921875,0.6605544686317444,-0.0299539566040039,-1.7701878547668457,4.95956982421875,-0.1966986060142517,0.7739662528038025,-0.3597996234893799,-1.6849735021591186,-0.2423553466796875,0.5287093043327331,-0.3160616755485534,0.7762875556945801,-0.1514945797622204
1767625009447373300,4.999373291015625,0.3590861558914184,-0.0370035171508789,-1.2150086164474487,4.99966455078125,-0.0708603709936142,0.7525860071182251,-0.2565633952617645,-1.1836410999298095,-0.24293079376220703,0.5028240084648132,-0.2959031224250793,0.758328115940094,-0.10971139743924138
1767625009467420700,5.019420654296875,0.4465197324752807,-0.5319900512695312,-1.0688581466674805,5.019757568359375,-0.0164933614432811,0.7367035150527954,-0.2486221492290496,-0.640942656993866,-0.3608999252319336,0.7079699397087097,-0.2542421132326126,0.8175820589065552,-0.09786061123013493
1767625009487476700,5.039476806640625,0.5913660526275635,-0.4432563781738281,0.2959481477737427,5.039768310546875,-0.0678060427308082,0.7544185519218445,-0.2547308206558227,-0.6899097323417663,-0.9163284301757812,0.7108867645263672,-0.17629570923745633,0.8729264616966248,-0.02260201349854467
1767625009527553000,5.079552978515625,1.4823232889175415,-0.7622957229614258,0.5533931851387024,5.0798447265625,-0.1374446749687194,1.0702359676361084,-0.1514945775270462,-0.6686521172523499,-1.3476377487182618,0.8236026167869568,-0.08002334795892238,0.894306743144989,0.05717698857188227
1767625009567655400,5.119655517578125,0.6751385927200317,-2.807096481323242,-2.0150232315063477,5.119947021484375,0.1795943826436996,1.0506882667541504,0.0299323964864015,-0.4485443353652954,-1.6813819885253907,1.0536468148231506,0.06487388648092744,0.882944643497467,0.1262047603726387
1767625009587689700,5.139689697265625,0.9226654171943665,-2.1935501098632812,-1.1087205410003662,5.140026611328125,0.3280346393585205,0.8594874143600464,0.2247984111309051,-0.44406847953796386,-1.7723321914672852,1.3520886063575746,0.4136779550462961,0.8679173588752747,0.16713273227214814
1767625009607743500,5.159743408203125,1.59674072265625,-2.200711250305176,0.0316807627677917,5.160035400390625,0.3286454975605011,0.6798930168151855,0.4758640229701996,-0.20532056093215942,-1.7468151092529296,1.3394888281822204,0.7418347749859094,0.7897265911102295,0.2219884306192398
1767625009647826200,5.199826171875,2.0835750102996826,-0.8980073928833008,0.3183274269104004,5.20011767578125,0.1368338167667389,0.6792821288108826,1.4892895221710205,0.825385320186615,-1.3539886474609375,1.3334698915481566,1.2026715397834777,0.7070154309272766,0.21710150837898254
1767625009667872500,5.21987255859375,1.4193243980407717,-0.6347103118896484,1.7471327781677246,5.20011767578125,0.1368338167667389,0.6792821288108826,1.4892895221710205,1.2358970403671266,-1.390432357788086,0.7913751721382141,1.592159241437912,0.7321830749511719,0.167132730782032
1767625009687928600,5.239928466796875,0.6450439095497131,-0.8429641723632812,3.1385061740875244,5.240220703125,0.1551597714424133,0.637132465839386,2.334116220474243,1.2476997256278992,-1.1586177825927735,0.1077927708625793,1.863994264602661,0.5426926732063293,0.15992452055215833
1767625009768091100,5.320091064453125,-1.787808179855347,-2.375768661499023,0.9438380599021912,5.320382568359375,0.0781907513737678,0.9853256344795228,2.172236919403076,1.2556421995162963,-1.0413053512573243,-0.7564931750297547,1.9085874080657959,0.23408355712890624,0.1977981641888618
1767625009808177700,5.360177734375,-1.821171283721924,-1.0416383743286133,0.0906941890716552,5.3604697265625,0.2926044464111328,-0.2675589919090271,1.835039138793945,0.97398442029953,-0.8410430908203125,-1.397546374797821,1.923125982284546,-0.12583824396133422,0.238603962957859
1767625009828218400,5.38021826171875,-2.2378547191619873,-0.3114452362060547,0.3580397963523865,5.38055517578125,0.3262020349502563,-0.8637634515762329,1.7122552394866943,0.4104996919631958,-0.5666677474975585,-1.8398261070251465,1.7686992168426514,-0.4773301124572754,0.2757445707917213
1767625009848284400,5.400284423828125,-1.7859416007995603,0.3666009902954101,0.3388438820838928,5.400575927734375,0.3408628106117248,-1.1203268766403198,1.5619823932647705,0.341445255279541,-0.0675689697265625,-1.8587976932525634,1.6143946409225465,-0.8473922729492187,0.35796703100204463
1767625009868329200,5.4203291015625,-1.566354751586914,0.5289125442504883,0.3210825324058532,5.400575927734375,0.3408628106117248,-1.1203268766403198,1.5619823932647705,0.7573675632476806,0.18484954833984374,-1.8039034366607667,1.4599679231643676,-0.8951619267463684,0.41783182621002196
1767625009888375000,5.440375,-1.8826661109924316,0.119725227355957,0.5985658764839172,5.440667236328125,0.4893030524253845,-0.8649851679801941,1.4007140398025513,1.2713534951210022,0.5807056427001953,-1.8427983283996583,1.2494637727737428,-0.7695680320262909,0.3914424479007721
1767625009928475600,5.4804755859375,-1.5467000007629397,0.2204542160034179,2.1703057289123535,5.480767333984375,0.5919284224510193,-0.5064072608947754,1.0629055500030518,1.708097219467163,1.0263227462768554,-2.098941516876221,0.9638231933116913,-0.5038416475057602,0.26169466972351074
1767625009968583700,5.520583740234375,-2.4323291778564453,1.6678352355957031,2.927969455718994,5.520876220703125,0.1942551434040069,-0.2357939779758453,0.6597344875335693,1.7429709553718566,1.3085124015808105,-2.227533054351807,0.564806020259857,-0.20647244155406952,0.09724974632263182
1767625010008656100,5.56065625,-3.066657543182373,2.594686508178711,2.5225625038146973,5.560947998046875,-0.3078760802745819,0.2083050459623336,0.1337794959545135,1.5383055448532104,1.525750732421875,-1.9935642719268798,0.12046263217926026,0.030787613987922634,-0.08405505418777465
1767625010048738600,5.600738525390625,-2.209312438964844,1.9398608207702637,0.4954512119293213,5.60103125,-0.4813618063926697,0.3665191531181335,-0.4331034719944,1.0877971172332763,1.6358160018920898,-1.4972532749176026,-0.26328291893005373,0.19034561216831203,-0.2566855728626251
1767625010088840200,5.640840087890625,-0.7128221988677979,1.2059168815612793,-0.4247611761093139,5.64113232421875,-0.4172209501266479,0.3213151097297668,-0.8210029006004333,0.4062998414039612,1.1072813034057618,-0.5419639587402345,-0.5365840315818786,0.24361306019127366,-0.30750956013798714
1767625010128927200,5.68092724609375,0.9348549842834472,0.7707805633544922,-0.0822364091873169,5.681219482421875,-0.271224170923233,0.2913827300071716,-0.8558222055435181,-0.16406506299972531,0.060475921630859374,0.999791431427002,-0.4923573911190033,0.1288925696164369,-0.19058995321393013
1767625010169025500,5.721025634765625,2.3441174030303955,-0.9748382568359376,-0.4795169234275818,5.721317626953125,-0.0598647929728031,0.0305432621389627,-0.7067710757255554,-0.20260666608810424,-0.36554632186889646,2.3637938499450684,-0.3032335042953491,0.007574729993939366,0.004398231953382503
1767625010209120500,5.76112060546875,4.642119407653809,-2.639340400695801,-0.3292620182037353,5.761412353515625,0.2767219543457031,-0.36529740691185,0.3549126982688904,0.1817438244819641,-0.3841245651245117,2.294779586791992,-0.28808404207229615,0.11765264756977556,0.17592918798327445
1767625010249189600,5.801189697265625,4.610699653625488,-0.1902503967285156,0.3027431964874267,5.8014814453125,0.4935791194438934,-0.2400700449943542,0.5125159621238708,0.010113131999969483,-0.516602897644043,1.5134310245513916,-0.4068362355232239,0.22650883682072162,0.1308473341166973
1767625010369418500,5.92141845703125,-1.0578935146331787,1.1130256652832031,1.4969912767410278,5.92171044921875,0.4404338300228119,0.8717046976089478,-0.7452555894851685,-0.1727677583694458,-0.5327877044677735,0.7318895578384399,-0.5017647027969361,0.2625498861074448,0.10714576244354249
1767625010449571600,6.001571533203125,-2.9718878269195557,0.1083889007568359,-0.94038987159729,6.00186279296875,-0.4966334402561188,0.8356636762619019,-1.4495831727981567,0.2951735258102417,0.2598163604736328,-0.4398548364639282,-0.8255232691764831,0.46401324570178987,0.05057964110746982
1767625010489635000,6.041635009765625,-1.5635899305343628,-1.0557622909545898,-1.3939213752746582,6.041926025390625,-0.1783726513385772,0.2107485085725784,-1.1814134120941162,0.6625782728195191,0.37701950073242185,-1.6120376348495484,-1.180558156967163,0.7298617988824845,-0.057543507870286656
1767625010529713700,6.081713623046875,-1.2166025638580322,1.3236799240112305,2.010444402694702,6.082005126953125,-0.0061086523346602,0.6420193910598755,-1.2638801336288452,0.7324714183807373,0.034974288940429685,-1.634828782081604,-1.2624140977859497,0.8566774278879166,-0.1332907958887517
1767625010549754400,6.10175439453125,-1.2502143383026123,0.3957653045654297,2.1397669315338135,6.102091796875,-0.047036625444889,1.0891727209091189,-1.2626584768295288,1.2257870197296143,0.038996315002441405,-1.0867016285657882,-1.1090869307518005,0.9866695553064346,-0.008918632473796578
1767625010569808400,6.121808349609375,-1.171849250793457,-0.5972003936767578,1.8464570045471191,6.122099853515625,0.0616973899304866,1.5057828426361084,-1.1545352935791016,1.4836680173873902,0.2887889862060547,-0.8424226194620132,-0.9718865931034089,1.2198979139328003,0.04886921951547266
1767625010609901300,6.1619013671875,-0.231252059340477,0.1284990310668945,1.5261881351470947,6.16219287109375,0.1252273768186569,1.4856243133544922,-0.6829473376274109,0.9477703928947449,0.2016895294189453,-0.7100235491991043,-0.8418944776058197,1.2895365476608276,0.06768386885523794
1767625010649996300,6.201996337890625,-0.3421948850154876,0.1932010650634765,-0.1045163869857788,6.202287841796875,0.110566608607769,1.3768903017044067,-0.4954117238521576,0.6334962844848633,0.2155467987060547,-0.4924693375825882,-0.7630928575992584,1.1821464419364929,0.07806857833638782
1767625010690080300,6.242080322265625,-0.5546072125434875,0.8881826400756836,-0.6690437197685242,6.24237158203125,0.0879645943641662,0.9902125597000122,-0.6139195561408997,0.3226263761520386,0.2990419387817383,-0.1397537976503372,-0.719354909658432,0.9408546686172485,0.03518583858385679
1767625010730145800,6.282145751953125,-0.1624432802200317,0.4650516510009765,0.5683963894844055,6.28243701171875,0.0048869219608604,0.5522221922874451,-0.8686503767967224,0.025671076774597144,0.275068473815918,0.13314229846000675,-0.7630928575992584,0.7016398310661316,-0.02333505367860198
1767625010770246400,6.322246337890625,0.5917284488677979,-0.1797246932983398,0.2921074628829956,6.322538330078125,-0.1527163088321685,0.2993239760398865,-0.9358455538749696,0.1140269041061401,0.2019124984741211,0.5022653222084046,-0.8278445720672607,0.5027420997619629,-0.07672467594966292
1767625010790290700,6.342290771484375,1.133228421211243,0.0086317062377929,0.0414116382598876,6.342626953125,-0.167377084493637,0.2895501255989074,-0.901637077331543,0.18868219852447507,0.044220161437988285,0.939512825012207,-0.8013330221176147,0.4247956991195679,-0.1319468951784074
1767625010810322200,6.362322265625,1.5034202337265017,-0.1725788116455078,0.337262749671936,6.362614013671875,-0.1563815027475357,0.3824016451835632,-0.8191702961921692,-0.3039905905723573,-0.05942096710205076,0.9696416616439821,-0.6747617423534393,0.4315152168273926,-0.17128661572933193
1767625010850429000,6.402428955078125,1.631630301475525,0.0997209548950195,-0.2957672476768493,6.402720458984375,-0.1881465017795562,0.6004805564880371,-0.4813618063926697,-0.5547072887420654,-0.21780967712402344,0.88681001663208,-0.539638352394104,0.4770857572555542,-0.15760323405265803
1767625010890529500,6.442529541015625,-0.0117990970611572,-0.0531539916992187,-1.894967555999756,6.44282177734375,-0.1918116807937622,0.5858197808265686,-0.2357939779758453,-0.4872704744338989,-0.4359884262084961,0.8664626836776733,-0.41367794275283815,0.5473352551460267,-0.13866640925407406
1767625010930617900,6.482617919921875,0.1775702238082885,-0.9716682434082032,-0.9614760279655457,6.482909423828125,-0.0842994004487991,0.5271766781806946,-0.2602286040782928,-0.46572957038879403,-0.6821964263916016,0.922803544998169,-0.29651398956775665,0.6673091888427735,-0.12608258575201028
1767625010950663200,6.5026630859375,1.031491756439209,-1.0822620391845703,0.3785957098007202,6.502999267578125,-0.0726929605007171,0.6407976150512695,-0.2718350291252136,-0.4515938937664033,-0.8212104797363281,1.0149544954299927,-0.20317378155887122,0.7485542535781861,-0.15247196406126018
1767625010970691800,6.52269189453125,1.7851245403289795,-1.4036188125610352,0.4449672698974609,6.522983154296875,-0.0934623852372169,0.9822713136672974,-0.2333505302667617,-0.282451456785202,-1.3118297576904296,1.3635661602020264,-0.05644394867122169,0.6817255914211273,-0.047158794105052915
1767625010990728200,6.542728271484375,2.0923850536346436,-0.5953493118286133,-0.2250888645648956,6.543065185546875,-0.3200933933258056,1.0067058801651,-0.0146607663482427,0.06048287749290471,-1.5107675552368165,1.7443499326705934,0.27843239195644853,0.6599787950515748,0.048747049272060416
1767625011050860500,6.602860595703125,1.7312592267990112,-2.5062503814697266,-1.04925537109375,6.60315234375,0.3347541689872741,0.251676470041275,0.4978551864624023,0.47439748644828794,-1.1994728088378905,1.7621009349822998,0.8162381757050753,0.5861862778663636,0.10433578640222549
1767625011090936300,6.642936279296875,2.081489086151123,-1.9663572311401367,0.7531956434249878,6.643228271484375,0.3952298164367676,0.4184426963329315,1.4141530990600586,0.8128537356853485,-0.8849016189575195,1.2074579358100892,1.354166092351079,0.5094616055488587,0.16823229193687436
1767625011131035400,6.683035400390625,1.1202467679977417,0.4742116928100586,2.4481687545776367,6.68332666015625,0.2052507251501083,0.2718350291252136,2.41719388961792,0.902885890007019,-1.2101917266845703,0.47175132036209105,1.820256280899048,0.3092199869453907,0.2919935941696167
1767625011171132200,6.723132080078125,-0.988090455532074,0.1692371368408203,2.1372485160827637,6.723423583984375,0.2260201424360275,0.598647952079773,2.456289052963257,1.0832659006118774,-0.8841501235961914,-0.1873326659202576,2.107485127449036,0.11716395691037176,0.31337387561798097
1767625011211203800,6.763203857421875,-1.586148023605347,-2.221799850463867,0.225071907043457,6.763495361328125,0.2987131178379059,0.0054977871477603,2.3157901763916016,0.954583466053009,-0.5007196426391601,-1.0280285716056823,2.182132840156555,-0.2751337103545667,0.34562755823135377
1767625011251298600,6.803298583984375,-1.564160704612732,-0.876042366027832,-0.147355318069458,6.803590087890625,0.4416555762290954,-0.7086036801338196,1.9339994192123413,0.500726842880249,-0.5081911087036133,-1.7132463097572326,1.9856785535812378,-0.6574131898581982,0.4489859610795975
1767625011291381200,6.84338134765625,-2.121990442276001,-0.0492048263549804,0.1097834706306457,6.8436728515625,0.5564982295036316,-1.5430456399917605,1.7873916625976562,0.3204050540924072,-0.4191596984863281,-1.8697352886199952,1.6863546013832091,-1.0565525464713574,0.5594304025173187
1767625011331463400,6.88346337890625,-2.3058419227600098,0.4368543624877929,0.1788856387138366,6.883755126953125,0.7220427393913269,-1.6395623683929443,1.434922456741333,0.6676994323730469,0.22144002914428712,-2.067879009246826,1.380677628517151,-1.3239893555641173,0.6300464272499084
1767625011371566300,6.92356640625,-1.7705353498458862,0.6143941879272461,1.235639572143555,6.923857421875,0.7782423496246338,-1.397048830986023,0.959669291973114,1.2697771549224854,0.7887269020080566,-2.3426689386367796,1.1052995681762696,-1.4262481927871704,0.6260147154331207
1767625011391602400,6.9436025390625,-2.576866626739502,0.981198787689209,1.9615437984466553,6.9439384765625,0.6517932415008545,-1.33168625831604,0.7874053120613098,1.875173270702362,1.3228676795959473,-2.576806330680847,0.8592430591583252,-1.3616186380386353,0.5990144729614257
1767625011411656200,6.96365625,-2.9381103515625,1.9603919982910156,2.8630332946777344,6.963947998046875,0.4214970171451568,-1.2198978662490845,0.5571091175079346,2.3321783542633057,1.8274526596069336,-2.8067125558853148,0.561873858422041,-1.133888065814972,0.4480085805058479
1767625011431690500,6.9836904296875,-3.292677402496338,2.6214990615844727,3.1367640495300293,6.963947998046875,0.4214970171451568,-1.2198978662490845,0.5571091175079346,2.119700086116791,2.0942235946655274,-2.9044405460357665,0.25118779465556146,-0.8954062700271607,0.2548529848456383
1767625011451721500,7.003721435546875,-3.4553730487823486,2.9597792625427246,2.4639110565185547,7.004013427734375,-0.0329867228865623,-0.5009095072746277,-0.0519235469400882,1.8233878850936889,2.177275371551514,-2.5442007064819334,-0.08808676674962042,-0.674761739373207,0.08527678698301315
1767625011491794400,7.04379443359375,-2.2591753005981445,1.9482488632202148,0.1732482314109802,7.044086181640625,-0.1875356286764145,-0.2046398520469665,-0.5937610268592834,1.3793087124824523,1.9680346488952636,-1.961519432067871,-0.4103792615234852,-0.4728096961975097,-0.0431270882487297
1767625011531870200,7.0838701171875,-0.7756674289703369,1.3964576721191406,0.4799827933311462,7.084161865234375,-0.1960877478122711,-0.2284636050462722,-0.9089674949645996,0.790825605392456,1.427335262298584,-1.1380356788635253,-0.738291735202074,-0.2802649736404418,-0.16664404124021528
1767625011551908000,7.103908203125,-0.0247039794921875,0.9141883850097656,0.6426374316215515,7.104244873046875,-0.2205223590135574,-0.2101376503705978,-1.0543533563613892,0.18074270486831662,0.2851125717163086,0.24953818321228027,-0.8114733934402466,-0.3068987011909484,-0.15699237044900655
1767625011571950600,7.12395068359375,0.8247413635253906,-0.0819978713989257,0.1943485140800476,7.12424267578125,-0.1960877478122711,-0.2571742534637451,-1.0824532508850098,-0.05355881452560429,-0.7030620574951172,1.6276426792144776,-0.5343849182128906,-0.43163738250732414,0.008063414134085178
1767625011612036000,7.1640361328125,3.4824962615966797,-2.7513341903686523,-0.5865034461021423,7.164327880859375,0.0152716310694813,-0.6340781450271606,-0.4178318381309509,-0.3072025775909424,-1.6280569076538085,1.2965513229370118,-0.3867998719215393,-0.43469170928001394,0.027977622486650967
1767625011652116000,7.204115966796875,4.631347179412842,-2.992624282836914,-0.9982593655586244,7.204407470703125,0.6377432942390442,-0.8283332586288452,0.7916813492774963,0.15876055955886842,-1.3541192054748534,0.9202007055282593,-0.2907718658447266,-0.1644449323415756,0.09004153255373241
1767625011772353300,7.324353271484375,-2.431124210357666,-3.2285165786743164,-0.7882360219955444,7.324645263671875,-0.0965167060494422,-0.2437352389097213,-0.171042263507843,0.6583097219467163,-0.8308577537536621,-0.22903234958648683,-0.1891238808631897,0.11520916521549229,0.14721852038055658
1767625011812424700,7.3644248046875,-1.9064570665359497,2.283876895904541,2.9724531173706055,7.364716552734375,0.0897971913218498,1.1410962343215942,-0.5742133259773254,1.1322363018989563,0.13291521072387696,-2.069507050514221,-0.3830125093460083,0.5696929126977921,0.06352998167276383
1767625011832455400,7.384455322265625,-4.92142391204834,2.5343093872070312,2.692094326019287,7.364716552734375,0.0897971913218498,1.1410962343215942,-0.5742133259773254,0.6038965463638306,0.27249345779418943,-3.3798793077468874,-0.800599992275238,0.7481877341866493,-0.16432275623083115
1767625011852496600,7.40449658203125,-5.719877243041992,2.067530632019043,1.7831294536590576,7.4047880859375,-0.4031710624694824,1.6383405923843384,-1.387274980545044,0.8672381639480591,0.9914505958557129,-3.2261785745620726,-1.0421361207962037,0.8300436779856681,-0.11765265166759493
1767625011892569000,7.444569091796875,-1.9205141067504885,-2.2947330474853516,-3.639958143234253,7.44486083984375,-0.5015203952789307,0.0641408488154411,-1.2962560653686523,0.9342315912246704,0.8148035049438477,-3.1721678018569945,-1.216843593120575,0.8362745091319084,-0.1561371624469757
1767625011932626200,7.484626220703125,-1.6626205444335938,0.3662691116333008,0.5284720659255981,7.484917724609375,0.1368338167667389,0.1655444800853729,-1.378722906112671,0.8074131727218627,0.06433944702148438,-2.514877200126648,-1.3947275638580323,1.0015746638178826,-0.20916026681661606
1767625011972700200,7.5247001953125,-1.636403203010559,1.4006414413452148,3.307420253753662,7.52499169921875,-0.1026253625750541,1.1722503900527954,-1.447750687599182,0.5282225847244263,-0.5926351547241211,-1.5082936882972717,-1.3672386169433595,1.1018787190318107,-0.14074335917830463
1767625011992741600,7.54474169921875,-1.6349709033966064,-1.2180109024047852,2.058002233505249,7.54507861328125,-0.1753183305263519,1.9675970077514648,-1.4636331796646118,1.312391847372055,0.024974632263183593,-1.4047066807746886,-1.2526402950286866,1.384587162733078,-0.039584068767726396
1767625012012791800,7.564791748046875,-0.6869596838951111,-1.2173423767089844,0.387176513671875,7.56509814453125,-0.0610865242779254,2.1398608684539795,-1.2498302459716797,1.202190238237381,-0.08819141387939453,-1.2885532975196838,-1.1478158116340638,1.4969863653182984,-0.07244861926883456
1767625012052886500,7.604886474609375,-1.4025790691375732,0.7933158874511719,0.280888170003891,7.6051787109375,0.0042760567739605,1.4776830673217771,-0.7232644557952881,0.14405305981636046,-0.25822696685791013,-0.9034419357776642,-1.0291857719421387,1.359663861989975,-0.036529742740094656
1767625012092977400,7.644977294921875,-1.0818536281585691,-0.1995611190795898,-0.0225359797477722,7.645268798828125,-0.0274889357388019,0.7275404930114746,-0.8546004891395569,-0.20032719373703003,-0.03518314361572265,-0.6331136524677277,-0.8757364153862,1.080376261472702,0.011972958780825119
1767625012133062700,7.685062744140625,0.2891536056995392,0.5504636764526367,-1.9832656383514404,7.68535400390625,0.0769690200686454,0.4856378734111786,-0.8546004891395569,-0.07756491899490361,0.19527378082275393,-0.5214859187602997,-0.7650476455688476,0.7666358888149262,0.0376292990520596
1767625012173120300,7.725120361328125,-0.2833294868469238,-0.1027917861938476,0.3361009657382965,7.72541162109375,0.067195177078247,0.5711590051651001,-0.6963863968849182,0.094886702299118,0.02520923614501954,-0.1646457970142364,-0.7606494188308716,0.5220454394817351,0.011850785464048361
1767625012193163800,7.745163818359375,-0.1288210153579712,-0.0650577545166015,1.000987887382507,7.72541162109375,0.067195177078247,0.5711590051651001,-0.6963863968849182,0.28878465294837946,0.09152030944824219,0.21921090483665467,-0.7299839854240417,0.42748350501060484,-0.007574729621410403
1767625012213205500,7.76520556640625,0.3816215395927429,-0.0570068359375,1.143146276473999,7.765497314453125,-0.1246165111660957,0.2547308206558227,-0.7012733221054077,0.8169563233852386,0.005021095275878904,0.3969253182411194,-0.6896668791770935,0.41770966053009034,-0.08014552295207977
1767625012233245200,7.7852451171875,0.8374298810958862,0.1319942474365234,0.9469537734985352,7.765497314453125,-0.1246165111660957,0.2547308206558227,-0.7012733221054077,0.4949937701225281,0.0018417358398437472,0.6269587635993957,-0.6526484370231629,0.40060543417930605,-0.15674802362918855
1767625012253304300,7.80530419921875,1.1777256727218628,0.1179676055908203,0.6575927138328552,7.80559521484375,-0.2858849465847015,0.4367686510086059,-0.6530149579048157,0.0873982310295105,0.026132011413574185,0.7659217238426208,-0.5911953926086426,0.3835012078285217,-0.19547688066959376
1767625012293393700,7.8453935546875,0.866837739944458,-0.1186885833740234,-1.2737118005752563,7.845685302734375,-0.3158173263072967,0.4856378734111786,-0.5112941861152649,-0.16857606768608094,0.023170089721679662,0.8038902759552002,-0.520335018634796,0.46401324272155764,-0.17812830731272694
1767625012333488000,7.885488037109375,0.5659937858581543,0.0563936233520507,-1.0369898080825806,7.885780029296875,-0.1264491081237793,0.4856378734111786,-0.3891211748123169,-0.2866223633289337,-0.11107864379882815,0.7951343774795532,-0.4313930332660675,0.5589416980743408,-0.1837482668459415
1767625012373587200,7.925587158203125,0.5714643001556396,-0.0718164443969726,-0.1367252171039581,7.9258779296875,-0.0378736443817615,0.6572909951210022,-0.3469714522361755,-0.562249630689621,-0.4080842971801758,1.020517110824585,-0.31386255770921706,0.6717074155807495,-0.17641788199543948
1767625012413662700,7.965662841796875,0.7936503887176514,-0.5392494201660156,0.3567222952842712,7.965953857421875,-0.1527163088321685,0.7293730974197388,-0.2565633952617645,-0.5836704432964325,-0.9337566375732422,1.2306949377059937,-0.03347541838884351,0.578489378467202,-0.039584065228700595
1767625012453760000,8.005760009765625,2.3046393394470215,-1.367060661315918,-0.720543622970581,8.006051025390626,-0.2492330223321914,1.0005972385406494,-0.0653625801205635,-0.4175150603055954,-1.195119285583496,1.6130358457565308,0.3327993914484978,0.46156977005302896,0.04300491735339167
1767625012533919000,8.0859189453125,1.9177268743515017,-2.7470502853393555,-1.380815863609314,8.0862109375,0.3683517575263977,0.0195476878434419,0.8906415104866028,-0.4053730219602585,-1.1234090805053711,1.592110538482666,0.8021882459521293,0.3246137838810682,0.09786061644554138
1767625012553956000,8.1059560546875,2.47769832611084,-1.2504196166992188,-0.206212893128395,8.106293212890625,0.2864958047866821,-0.098960168659687,1.4422528743743896,-0.07903603017330166,-0.8451848983764648,1.4012242674827575,1.2534954890608787,0.17324137724936012,0.1756848484277725
1767625012573997600,8.12599755859375,0.4668377637863159,0.2867345809936523,-0.0760150253772735,8.1262890625,0.2364048510789871,-0.0274889357388019,1.9999728202819824,0.08877359330654147,-0.9144952774047852,0.4894304633140564,1.764667522907257,-0.002199114486575121,0.3470936357975006
1767625012594032400,8.146032470703124,-0.1607809662818908,0.8518714904785156,1.9884072542190552,8.1262890625,0.2364048510789871,-0.0274889357388019,1.9999728202819824,0.20088356435298924,-0.9979387283325195,-0.3349491477012635,1.9975293636322022,-0.0717155799269676,0.4399451553821564
1767625012654152700,8.206152587890625,-2.2543296813964844,-1.7136125564575195,0.1185044944286346,8.20644482421875,0.607810914516449,0.1233947798609733,2.490497589111328,0.13912805318832402,-0.9801326751708984,-1.2930519461631775,2.061670207977295,-0.3966958850622177,0.54232617020607
1767625012694232600,8.246232666015626,-2.2041711807250977,-3.1642675399780273,-0.8202660083770752,8.2465244140625,0.8326093554496765,-0.3280346393585205,2.054950714111328,0.15989336371421814,-0.9678913116455078,-1.8636652112007142,1.923736834526062,-0.8168489806354046,0.646051087975502
1767625012734314200,8.286314208984376,-2.3128156661987305,-1.1613893508911133,-0.5149904489517212,8.2866064453125,0.79840087890625,-1.7238616943359375,1.7629570960998535,-0.1257080018520355,-1.0583229064941406,-2.282572889328003,1.7568484544754028,-1.2001058235764503,0.7472103714942933
1767625012774393600,8.3263935546875,-2.386228561401367,0.3479413986206054,0.0278115272521972,8.326685302734376,0.7550294399261475,-2.1282544136047363,1.310305953025818,0.04191874265670779,-0.629513168334961,-2.325308609008789,1.4666874647140502,-1.5735888242721559,0.7844731569290161
1767625012794429000,8.346428955078125,-2.255319356918335,0.3997135162353515,0.5604004263877869,8.346765380859376,0.7422012686729431,-1.9437731504440308,1.1655309200286863,0.6061991095542908,0.15701637268066404,-2.608790874481201,1.1872776985168456,-1.86265025138855,0.7729888796806336
1767625012814484500,8.366484375,-2.468008279800415,0.4304361343383789,0.9566382169723512,8.3667763671875,0.7941248416900635,-1.7440202236175537,1.0396926403045654,1.2527190804481507,0.7182705879211426,-2.9248992919921877,0.8720712333917617,-1.7989980936050416,0.7066489160060883
1767625012854583000,8.4065830078125,-3.621582508087158,0.7683801651000977,2.00113582611084,8.406875,0.7751879692077637,-1.7733417749404907,0.6579018831253052,1.7387629628181458,1.0226906776428222,-3.1569032669067383,0.601946621388197,-1.5650367259979248,0.6072000563144684
1767625012894662100,8.446662109375,-3.893357753753662,1.6448817253112793,2.717609405517578,8.446953369140624,0.4667010605335235,-1.405600905418396,0.1869247704744339,2.003521752357483,1.2536887168884276,-3.2619767665863035,0.32229250594973563,-1.2908804178237916,0.48612656593322756
1767625012914693600,8.466693603515624,-3.546248435974121,1.870041847229004,2.458030939102173,8.46702978515625,0.2577851414680481,-0.9584475755691528,-0.0403171069920063,2.0065312147140504,1.3973485946655273,-3.2698269844055177,0.04495968744158746,-1.0025520324707031,0.3412293255329132
1767625012934727200,8.48672705078125,-2.780686855316162,1.554703712463379,1.8841943740844729,8.487018798828124,0.1368338167667389,-0.5729916095733643,-0.23273965716362,1.7657010793685912,1.4236841201782227,-3.0014962196350097,-0.17018705680966378,-0.6776939004659652,0.19034561552107332
1767625012954759200,8.50675927734375,-2.5072593688964844,1.148735523223877,0.971685528755188,8.5070947265625,0.0696386396884918,-0.3023782968521118,-0.3469714522361755,1.4853185653686523,1.3150470733642579,-2.5781397819519043,-0.3380528248846531,-0.4194200798869133,0.07574729360640048
1767625012974805500,8.526805419921875,-2.279928684234619,0.9000577926635742,0.7969851493835449,8.527096923828125,0.0207694191485643,-0.1490511149168014,-0.4178318381309509,1.0362045407295226,1.0540361404418945,-1.9823616027832032,-0.5182580769062042,-0.235793986171484,-0.012461649999022485
1767625013014883800,8.5668837890625,-1.7765755653381348,1.101696491241455,1.3156968355178833,8.56717578125,-0.1062905490398407,-0.1142318025231361,-0.6524040699005127,0.7212594032287598,0.5313484191894531,-1.2691423416137695,-0.5586973547935485,-0.10177014991641045,-0.05009094960987566
1767625013054974000,8.606973876953125,-0.5673575401306152,0.5649871826171875,0.2124608159065246,8.607266357421874,-0.1832595765590667,-0.0403171069920063,-0.941343367099762,0.6253920793533325,-0.13172426223754882,-0.4323890209197998,-0.4816061623394489,-0.0056199602782726395,-0.04410447068512439
1767625013095076600,8.64707666015625,0.7854094505310059,-1.058734893798828,0.3094686865806579,8.6473681640625,-0.051312681287527,0.0971275717020034,-0.4349360466003418,0.540465122461319,-0.8330763816833496,0.6942124366760254,-0.3262020416557789,0.04459316208958622,0.0015882499516010396
1767625013115122200,8.6671220703125,1.6765072345733645,-2.166627883911133,0.4923489093780517,8.667458740234375,0.0995710343122482,0.1783726513385772,0.0384845100343227,-0.08042804598808292,-1.2223207473754882,1.6901006698608398,-0.09920451715588571,0.14648548588156696,0.11545353010296822
1767625013135152400,8.68715234375,3.353078603744507,-2.6067028045654297,0.3723503649234772,8.6874443359375,0.2492330223321914,0.1020144969224929,0.3591887652873993,-0.2967363893985749,-1.0559932708740234,2.2981151580810546,0.14086552783846853,0.15882496386766426,0.1891238786280155
1767625013175217700,8.7272177734375,3.2028656005859375,-0.8445253372192383,-1.788769006729126,8.72750927734375,0.4630358517169952,0.3952298164367676,0.4825835525989532,-0.013566511869430541,-1.1318254470825195,2.2782129287719726,0.219422797113657,0.021258108317851975,0.17971655428409572
1767625013195247900,8.747247802734375,2.472714900970459,1.3966245651245115,-0.8690809011459351,8.74758447265625,0.1850921660661697,0.0213802829384803,0.2590068578720093,0.3572418034076691,-0.3458457946777344,0.7826691150665284,-0.041783173382282254,0.3237585887312888,0.10763445496559143
1767625013215295700,8.767295654296875,0.6858983039855957,-1.4378957748413086,1.7253180742263794,8.767587158203124,-0.0983493030071258,-0.5907067060470581,-0.0421497002243995,0.19176218509674073,-0.0371719360351563,-0.471936559677124,-0.3798359885811806,0.43823473006486885,-0.027488937973976123
1767625013335515100,8.88751513671875,-5.801211833953857,1.763270378112793,2.34639048576355,8.887806884765626,-0.2608394622802734,1.6908750534057615,-1.2675453424453735,0.31091067790985105,-0.034657287597656294,-1.6040162563323974,-0.6891781404614449,0.3349985033273696,-0.13512339293956752
1767625013375582500,8.92758251953125,-2.919949769973755,-1.063333511352539,-0.4550477266311645,8.927874267578124,-0.4263839423656463,0.6743952035903931,-1.3310753107070925,0.7512445449829102,-0.13690738677978515,-2.5398348808288573,-0.9538049533963203,0.30653218328952786,-0.18716911077499385
1767625013415650300,8.967650390625,-2.4575328826904297,-0.8319520950317383,-1.1930265426635742,8.96794140625,-0.0751364231109619,-0.1209513172507286,-1.0641272068023682,0.8618853330612183,0.4814133644104004,-3.1697667598724366,-1.219775676727295,0.540004888176918,-0.17287486419081682
1767625013435679500,8.987679443359376,-2.206378221511841,0.8853740692138672,1.3325884342193604,8.96794140625,-0.0751364231109619,-0.1209513172507286,-1.0641272068023682,0.8399194478988647,0.186470890045166,-2.5475602626800535,-1.2406672716140748,0.3171612411737442,-0.1260825857520103
1767625013455723500,9.0077236328125,-2.4637610912323,1.6537079811096191,2.27852201461792,9.008015380859376,-0.0268780700862407,0.5766568183898926,-1.3720033168792725,1.3961536407470703,0.16120672225952154,-2.3722617626190186,-1.2351695060729981,0.4918687015771866,-0.05473352521657939
1767625013475759900,9.027759765625,-2.6901793479919434,0.2885580062866211,2.2365610599517822,9.008015380859376,-0.0268780700862407,0.5766568183898926,-1.3720033168792725,1.816406786441803,0.3913329124450684,-2.0755412578582764,-1.173349952697754,0.9006597235798836,-0.021013763546943627
1767625013495803100,9.04780322265625,-2.043457269668579,-1.1896543502807615,2.3261232376098633,9.048095458984376,-0.0696386396884918,1.547932505607605,-1.303586483001709,1.6704816937446594,0.2071351051330567,-1.7932853937149047,-1.039326125383377,1.2712105751037597,0.022724187374115013
1767625013535887000,9.08788720703125,-0.9739303588867188,0.3186788558959961,0.9082391858100892,9.088178466796874,0.0934623852372169,1.9230037927627563,-0.7550294399261475,1.322257661819458,-0.16309738159179682,-1.4929361581802367,-0.8469035804271698,1.4377324342727662,0.04031710624694824
1767625013575987000,9.127987060546875,-0.7950989007949829,-0.0356149673461914,0.6029629707336426,9.128278564453124,0.1435533314943313,1.7318029403686523,-0.394008070230484,0.7217591524124145,-0.24726734161376948,-1.1962950944900512,-0.6684087634086608,1.5277739763259888,0.04850270040333267
1767625013596032800,9.14803271484375,-0.96201491355896,-0.1974544525146484,0.5374018549919128,9.148368896484374,0.0610865242779254,1.4092661142349243,-0.4098905920982361,-0.01238267421722412,0.09251861572265625,-0.9321203708648682,-0.5353623032569885,1.4126869678497314,0.08576548136770719
1767625013616066800,9.16806689453125,-1.2069740295410156,-0.1322917938232422,-0.7659314870834351,9.168359130859375,0.0140499006956815,1.026864528656006,-0.4795292317867279,-0.025542843341827416,0.03209037780761717,-0.7876265645027161,-0.5220454454421997,1.2034045338630677,0.08881980665028089
1767625013656267800,9.208267822265626,-0.7225836515426636,0.5092754364013672,-1.34458589553833,9.208559326171876,0.1166752651333808,0.9724974632263184,-0.6383541822433472,0.09991549253463743,-0.004472160339355486,-0.599655294418335,-0.5693264186382294,0.9965655684471131,0.03652974255383011
1767625013696380000,9.2483798828125,-0.2514613270759582,0.0165376663208007,0.8424383401870728,9.248671630859375,0.1087340116500854,0.8765916228294373,-0.6884451508522034,0.11518273353576658,0.013194465637207017,-0.24672553539276124,-0.602924007177353,0.8533787608146668,-0.015515976026654249
1767625013736479700,9.288479736328124,0.1447574496269226,-0.2184276580810547,1.2302546501159668,9.28877099609375,-0.1178969889879226,0.6976081132888794,-0.6304129362106323,0.07403964996337889,0.001506805419921875,0.09017137289047242,-0.5919284284114837,0.8268671989440918,-0.05900958031415937
1767625013776586500,9.32858642578125,0.8026338815689087,-0.1091213226318359,0.6137380599975586,9.32887841796875,-0.1991420686244964,0.6933320760726929,-0.5778785347938538,0.09106907844543458,-0.07916698455810547,0.23946574926376343,-0.5373170733451843,0.7880161762237549,-0.10335839837789532
1767625013816680000,9.368679931640624,0.4775105118751526,-0.1907300949096679,-0.9716469049453736,9.36897119140625,-0.2034181207418441,0.8943067193031311,-0.4245513379573822,-0.21198740005493164,0.00158233642578125,0.244536828994751,-0.47842965722084047,0.7825183868408203,-0.1353677369654178
1767625013856753000,9.4087529296875,0.0238882303237915,0.1059064865112304,-1.2594387531280518,9.409044677734377,-0.1050688251852989,0.7782423496246338,-0.36529740691185,-0.5013334035873414,0.11713829040527343,0.21098445653915404,-0.43346997499465945,0.8216137647628784,-0.1221730485558509
1767625013876800300,9.42880029296875,-0.2261059284210205,0.4202842712402344,-0.6728440523147583,9.42913720703125,-0.051312681287527,0.8491026759147644,-0.394008070230484,-0.7069188117980957,0.08251266479492188,0.12396401166915894,-0.3860668301582336,0.863396942615509,-0.09150761365890495
1767625013896859000,9.44885888671875,-0.023004412651062,0.3593521118164062,-0.2164753675460815,9.449150634765624,-0.0519235469400882,0.8930850028991699,-0.4056145250797272,-0.4124202013015747,0.09059181213378904,0.021543502807617198,-0.3579670310020447,0.8789129137992859,-0.06462954431772225
1767625013916906800,9.46890673828125,0.3675316572189331,-0.2822494506835937,-0.4141889810562134,9.469242919921877,-0.0458148941397666,0.902247965335846,-0.3408628106117248,0.050547242164611816,-0.052307701110839856,0.1573164939880371,-0.3413514971733093,0.9538049817085266,-0.06707300543785087
1767625013936938500,9.4889384765625,-0.0345920324325561,-0.150334358215332,0.5008461475372314,9.489229736328124,-0.0690277740359306,0.9718865752220154,-0.2840523421764374,0.2902698993682861,-0.28175697326660154,0.4319185733795166,-0.30873129665851595,1.048000407218933,-0.09028588607907287
1767625013956984000,9.508984130859377,0.7027531862258911,-0.6085910797119141,1.0553984642028809,9.5093203125,-0.117286130785942,1.1527026891708374,-0.2822197377681732,-0.0008959531784057617,-0.4722169876098633,0.6898710012435914,-0.24813346415758128,1.183734655380249,-0.11142182350158683
1767625013977039000,9.5290390625,1.146904468536377,-0.7269620895385742,0.5257692337036133,9.529331298828126,-0.167377084493637,1.3200798034667969,-0.230907067656517,-0.26738390922546384,-0.9113473892211914,0.7478251695632935,-0.1490511193871498,1.2446990132331848,-0.049480088055133764
1767625014017141200,9.569141357421875,1.2667577266693115,-0.5929479598999023,-1.672304630279541,9.56943310546875,-0.157603234052658,1.5717562437057495,-0.1026253625750541,-0.4359467625617981,-1.3588645935058594,1.057435441017151,-0.004886920750141144,1.253128957748413,0.02345722019672399
1767625014057235700,9.609235595703124,0.6573024988174438,-2.4779014587402344,-1.746628761291504,9.609527099609377,0.2638937830924988,1.207069754600525,0.1545489132404327,-0.6452470481395721,-1.5943449020385743,1.2561317205429077,0.23310618251562118,1.1996171712875365,0.08735372424125674
1767625014077271800,9.629271728515626,1.513459324836731,-2.387920379638672,-0.3419681191444397,9.629608154296877,0.2956587672233581,1.0140362977981567,0.4367686510086059,-0.37113420367240907,-1.4116020202636719,1.2537175178527833,0.6472728207707406,1.1451279878616334,0.16603316962718967
1767625014097306000,9.64930615234375,1.6962345838546753,-1.7859926223754885,0.0088970363140106,9.649597412109374,0.2021963894367218,0.8851437568664551,0.9077457785606384,-0.09055526852607727,-1.9230670928955078,0.5873302936553955,1.0478782594203948,1.0016968369483947,0.25607470571994784
1767625014137413400,9.689413330078125,1.1348334550857544,0.1867523193359375,1.8963334560394287,9.689705322265626,0.2260201424360275,1.0476338863372805,1.8399261236190796,0.5868310153484344,-1.476786231994629,0.05592446327209473,1.3056633830070496,0.7385360836982728,0.2728124111890793
1767625014257716700,9.809716796875,-2.065178394317627,-3.150273323059082,-0.2694099545478821,9.810008544921876,0.2926044464111328,0.8546004891395569,1.9004018306732176,0.6889359414577484,-0.8719205856323242,-0.4757877588272095,1.472429597377777,0.4080579876899719,0.2483778029680252
1767625014297794600,9.849794677734376,-1.99972665309906,-0.2464971542358398,1.640302658081055,9.850086181640624,0.3475823104381561,-0.1087340116500854,1.443474531173706,0.8665406942367554,-0.4201667785644531,-1.0641151189804077,1.4818369150161743,0.17898351550102237,0.2645046442747116
1767625014337872100,9.8898720703125,-1.14510178565979,0.6364078521728516,0.1685565114021301,9.8901640625,0.1734857261180877,-0.6383541822433472,1.2705997228622437,0.8688637495040894,-0.27945423126220703,-1.5586607694625854,1.278052270412445,-0.08368853926658629,0.2765997767448425
1767625014377956400,9.929956298828126,-1.245402216911316,0.4727764129638672,0.8969208002090454,9.930248046875,0.2828305959701538,-0.2602286040782928,0.9547823667526244,1.4331142783164978,0.6309894561767578,-1.4827600240707397,1.0311405301094054,-0.32779029607772825,0.25473080277442933
1767625014398000600,9.950000732421875,-1.3378947973251345,0.890315055847168,1.9079487323760984,9.950338134765625,0.2864958047866821,-0.2657263875007629,0.8210029006004333,1.5819991946220398,1.1673139572143554,-1.5054455280303956,0.7905818045139312,-0.3573561728000641,0.1501506745815277
1767625014418060300,9.970060302734376,-1.6856746673583984,1.4019451141357422,2.55184268951416,9.97035107421875,0.1832595765590667,-0.3659082949161529,0.66584312915802,1.8935194969177247,1.4685529708862304,-1.6860687255859375,0.5370727251749485,-0.22284364551305771,0.05326744914054872
1767625014458141000,10.010140869140624,-2.113154172897339,2.4351253509521484,2.3847272396087646,10.01043310546875,-0.1753183305263519,-0.2565633952617645,0.2406809031963348,1.886691927909851,1.6434242248535156,-1.7987619876861571,0.2999348382931203,-0.11496484130620957,-0.06499605774879455
1767625014478174200,10.03017431640625,-2.0482177734375,2.1426029205322266,1.7261580228805542,10.030510498046874,-0.3109304010868072,0.0342084541916847,0.0030543261673301,1.525707972049713,1.5819808959960937,-1.7797614812850953,0.03176499414257703,0.031887163221836066,-0.15503759682178492
1767625014498214100,10.050214111328126,-1.8088685274124143,1.347132682800293,0.8627829551696777,10.05050537109375,-0.3084869384765625,0.2791654169559479,-0.230907067656517,0.9766201853752137,1.4780532836914062,-1.5311790704727173,-0.21282545519061385,0.20989329367876047,-0.2045176818966865
1767625014538312000,10.09031201171875,-1.2428922653198242,0.5830984115600586,0.1030289530754089,10.090603271484374,-0.1637118905782699,0.4685336351394653,-0.5198463201522827,0.40057016611099244,1.2034574508666993,-1.0813359498977662,-0.3721391160506755,0.38496726900339123,-0.16407840177416796
1767625014558356200,10.110356201171877,-0.4427626132965088,0.8823070526123047,-0.1935962438583374,10.110692626953124,-0.0641408488154411,0.5241223573684692,-0.5571091175079346,0.0020959973335266,0.7599964141845703,-0.5827479600906372,-0.47781880795955656,0.48197266459465027,-0.04581489488482474
1767625014578385000,10.130385009765623,0.136061429977417,1.0621461868286133,-0.4955228567123413,10.130676513671874,0.0268780700862407,0.6188064813613892,-0.5558874011039734,-0.20080060958862306,0.3964967727661133,-0.014237642288208008,-0.5215567588806153,0.48295004963874816,0.080023343116045
1767625014618472700,10.17047265625,0.4447221755981445,-0.0747022628784179,-0.2662128210067749,10.1707646484375,0.280387133359909,0.5192354321479797,-0.5253441333770752,-0.25711507797241206,0.25141716003417974,0.5261500358581543,-0.49113566875457765,0.4129448935389518,0.1814269758760929
1767625014638513000,10.190512939453123,1.0336830615997314,-0.4703655242919922,-0.1517000794410705,10.19085009765625,0.3207042515277862,0.2840523421764374,-0.4495968222618103,-0.13571738004684447,-0.027715682983398417,1.1076303482055665,-0.40097195506095884,0.30909780645743,0.24874432310461997
1767625014658549800,10.2105498046875,1.4590461254119873,-0.1422996520996093,-0.1785433888435363,10.21084130859375,0.3433062732219696,0.1185078546404838,-0.3677408695220947,0.16711376905441283,-0.3070180892944336,1.5871991634368896,-0.2678033262491227,0.1764178776182234,0.25448645651340485
1767625014698652000,10.25065185546875,2.464638948440552,-0.5133571624755859,0.4133922457695007,10.250943603515625,0.2724458873271942,0.0048869219608604,-0.1062905490398407,0.4971263766288757,-0.22009944915771484,1.8596626758575439,-0.14135421663522724,0.038728856388479435,0.17763961106538775
1767625014738757400,10.29075732421875,2.533905506134033,-0.3343658447265625,1.018632888793945,10.2910498046875,0.0555887371301651,-0.0445931628346443,0.1099557429552078,0.7421804904937744,0.036246299743652344,1.7971068382263184,-0.0698829829692841,-0.09211847847327594,0.06670648306608204
1767625014758803500,10.310803466796877,1.807039737701416,0.3598909378051758,1.3838502168655396,10.31114111328125,-0.1038470938801765,-0.16920967400074,0.1069014146924018,0.9802598834037781,0.23119182586669923,1.3627182483673095,-0.1583362758159638,-0.2064724496565759,-0.05668829828500743
1767625014778861000,10.330861083984376,0.7209038734436035,0.8113632202148438,1.0735704898834229,10.331153076171876,-0.2339613884687423,-0.3701843321323395,-0.0922406539320945,0.41498332023620604,-0.18534202575683595,0.5623523950576783,-0.3199712157249451,0.03066542893648152,-0.1808161154389381
1767625014818941000,10.37094091796875,-0.7128968238830566,0.832427978515625,1.011853575706482,10.371231689453126,-0.2736676335334778,-0.4532620012760162,-0.8100073337554932,-0.3661980152130127,-0.4956392288208008,-0.2913114786148071,-0.5248554140329361,0.27769932448863993,-0.2615725025534629
1767625015019324200,10.57132421875,-1.537190318107605,-2.5960264205932617,-2.4129905700683594,10.571615478515625,-0.3481931984424591,1.1905763149261477,-0.9144652485847472,-0.7064685463905335,-0.6343339920043946,-0.8135514497756958,-0.6901555463671685,0.4300491213798524,-0.1863139063119888
1767625015039361500,10.591361572265624,-1.7344138622283936,-1.8858518600463867,-2.8872737884521484,10.571615478515625,-0.3481931984424591,1.1905763149261477,-0.9144652485847472,-0.48498150110244753,-0.8881158828735352,-1.0339276909828186,-0.7988895654678345,0.7375586926937105,-0.06805039644241331
1767625015059392500,10.611392578125,-0.8041601181030273,-0.3335828781127929,-0.3175024390220642,10.611683837890626,0.2724458873271942,0.5925393104553223,-0.7195992469787598,-0.10946024656295776,-1.0271799087524414,-1.0523541808128356,-0.7456221103668212,1.200228023529053,0.032864543795585635
1767625015099477000,10.65147705078125,-0.3809773325920105,-0.4575462341308594,2.1810057163238525,10.651768798828124,0.3573561608791351,1.167363524436951,-0.6359107494354248,0.7561607003211975,-0.42647762298583985,-1.048752224445343,-0.6653544187545777,1.3772567749023437,0.12156217843294144
1767625015139573800,10.69157373046875,-0.8050292730331421,0.1371078491210937,2.8894598484039307,10.691865234375,0.230907067656517,1.860084652900696,-0.5436700582504272,1.4527506828308105,0.0413055419921875,-1.0145621418952941,-0.5809328436851502,1.5756658077239991,0.19706512466073037
1767625015159618600,10.71161865234375,-1.5191805362701416,0.4074850082397461,1.915114164352417,10.711955078125,0.0952949747443199,2.0757200717926025,-0.513126790523529,1.4698920249938965,0.14831295013427734,-1.0636294722557067,-0.5409822583198547,1.79313383102417,0.15002850294113157
1767625015179664400,10.731664306640624,-1.5634634494781494,0.45306396484375,0.5956761240959167,10.7319560546875,0.0293215326964855,2.182621479034424,-0.4923573732376098,0.9805486321449279,0.2419963836669922,-1.1346879363059998,-0.5340183854103089,1.8213557958602906,0.07648032885044813
1767625015219749400,10.771749267578125,-1.0494967699050903,0.2014541625976562,-0.2317957282066345,10.7720400390625,0.0372627787292003,1.6798794269561768,-0.5198463201522827,0.27807371616363524,0.22459144592285152,-1.0124189257621765,-0.5496565341949463,1.6622864961624146,0.027855454385280635
1767625015239794400,10.79179443359375,-0.7362696528434753,0.0108709335327148,-0.26571124792099,10.792130859375,-0.0103847095742821,1.3084733486175537,-0.6010913848876953,-0.3190932273864746,0.12355823516845703,-0.5977233409881592,-0.5629734039306641,1.4603344440460204,0.025656339526176474
1767625015259850000,10.81185009765625,-0.1936842203140258,0.0500831604003906,-0.622914731502533,10.812141845703126,-0.0122173046693205,1.064738154411316,-0.6218608021736145,-0.4205319046974182,0.007396316528320302,-0.12743430137634276,-0.5710368275642396,1.1949745893478394,0.02174680177122356
1767625015299932200,10.85193212890625,0.5542973875999451,-0.0976810455322265,-1.0707205533981323,10.852224365234376,0.0842994004487991,1.0659598112106323,-0.5797111392021179,-0.32864840030670167,-0.07106056213378906,0.2867626905441284,-0.5676159858703613,1.0217332005500794,0.002321287430822877
1767625015340033300,10.892033203125,0.7879817485809326,-0.1277456283569336,0.0884827375411987,10.892324951171876,0.0097738439217209,0.8558222055435181,-0.5326744914054871,-0.26822072267532354,-0.12468490600585938,0.7041140198707581,-0.5379279375076294,0.8940623641014099,-0.03298672474920748
1767625015360095200,10.91209521484375,1.0214881896972656,-0.1908302307128906,0.2276217937469482,10.91243212890625,-0.0598647929728031,0.8136724829673767,-0.5027421116828918,-0.14059679508209233,-0.11991634368896484,0.9682896256446838,-0.49797735214233396,0.8219802618026734,-0.07929031159728764
1767625015400209700,10.952209716796874,1.3504869937896729,-0.2572507858276367,0.0364271402359008,10.95254638671875,-0.1869247704744339,0.6701191663742065,-0.4526511430740356,0.013756036758422819,-0.0009899139404296875,1.0837885856628418,-0.4620584726333618,0.7500203490257263,-0.15540412273257967
1767625015420263400,10.972263427734376,1.127193808555603,0.0739259719848632,0.015204906463623,10.9725546875,-0.2437352389097213,0.7043276429176331,-0.4221078753471374,-0.2763028383255005,0.12270259857177732,1.0789026737213134,-0.4241848289966583,0.698707664012909,-0.21539108827710146
1767625015440312300,10.992312255859376,1.1317921876907349,0.4969511032104492,-0.2989563941955566,10.992648681640626,-0.2962696552276611,0.7061602473258972,-0.4001167416572571,-0.5976392984390259,0.08824024200439451,0.8922550439834595,-0.39193114042282107,0.622960376739502,-0.2450791388750076
1767625015460370000,11.012369873046875,0.763552188873291,0.4907169342041015,-1.361811637878418,11.01266162109375,-0.290160983800888,0.5992587804794312,-0.3433062732219696,-0.5524666368961335,0.1330757141113281,0.767706286907196,-0.36041049361228944,0.5792224287986756,-0.2483778089284896
1767625015500471800,11.052471923828126,0.0882500410079956,-0.3631420135498047,-1.3790605068206787,11.052762939453125,-0.2083050459623336,0.4349360466003418,-0.3414736688137054,-0.45261290669441223,-0.013739585876464844,0.6075282216072082,-0.3114191025495529,0.5378057599067688,-0.26169466972351063
1767625015540553500,11.092553466796875,0.7277432084083557,-0.0330734252929687,0.2622904479503631,11.092844970703124,-0.2034181207418441,0.4514294266700744,-0.2950479090213775,-0.4917591392993927,-0.35297260284423826,0.6015565037727356,-0.25118778795003893,0.553810429573059,-0.260961627960205
1767625015580661200,11.1326611328125,0.326303482055664,-0.6601505279541016,0.514473557472229,11.13295263671875,-0.3103195428848266,0.4972442984580993,-0.1771509200334549,-0.9349255859851837,-1.0453607559204101,0.3990784525871277,-0.17837264947593215,0.5445252776145935,-0.18496999293565747
1767625015620774000,11.17277392578125,1.1019335985183716,-1.199213981628418,-0.494687557220459,11.17306591796875,-0.2926044464111328,0.7861835956573486,-0.098960168659687,-0.5809894680976868,-1.602088165283203,0.6505654931068421,-0.0219911497086287,0.49773300290107725,-0.09859364777803419
1767625015660857000,11.212857177734374,-0.2488380670547485,-2.971223831176758,-3.577643871307373,11.2131494140625,0.0897971913218498,0.5528330206871033,0.0207694191485643,-0.4576778709888458,-1.8144189834594726,0.8513346195220948,0.32107078023254865,0.45497243404388427,-0.05119050592184068
1767625015700938200,11.252938232421876,1.3456852436065674,-3.1467790603637695,0.390620082616806,11.2532294921875,0.2235766798257827,0.2009746730327606,0.4404338300228119,-0.20234470963478088,-1.2913848876953125,0.8693168520927429,0.8410392809659243,0.4106236219406128,0.0006108663976192461
1767625015741022200,11.293022216796874,1.7315888404846191,-1.0947275161743164,0.8788484334945679,11.2933134765625,0.0335975885391235,0.2376265823841095,1.4202617406845093,-0.472029310464859,-1.5960908889770509,0.02319999933242798,1.3200798097997903,0.2378709256649017,0.2149023912847042
1767625015781091600,11.333091552734375,0.416214644908905,1.9550199508666992,1.7911393642425537,11.333383544921874,-0.051312681287527,0.2755002379417419,2.422691583633423,0.27526176571846006,-1.1466068267822265,-0.2821964144706727,1.5807970941066742,-0.22589797377586365,0.36493089571595194
1767625015861253400,11.41325341796875,-3.128650665283203,-2.72274398803711,-1.8431105613708496,11.413544677734375,0.778853178024292,-0.0775798857212066,2.2962424755096436,0.20386143922805786,-0.6239200592041017,-0.8528949856758118,1.7109113931655884,-0.6145304560661315,0.4678006060421467
1767625015941404400,11.493404296875,-1.7758201360702517,-0.7238035202026367,0.1588115096092224,11.493696044921874,0.8399397134780884,-1.7660114765167236,1.3243558406829834,0.46949065923690797,-0.1527180671691896,-1.9866586804389954,1.5765210270881653,-1.0410365760326385,0.6119647987186909
1767625015981487600,11.533487548828123,-1.5078076124191284,-0.5333452224731445,0.0336184501647949,11.53377880859375,0.7379252314567566,-1.742187738418579,1.0910053253173828,0.6586574435234069,-0.14472122192382825,-2.7475987911224364,1.1404854118824006,-1.3472022354602813,0.6929655313491822
1767625016061735000,11.61373486328125,-3.937229633331299,1.261282444000244,2.2069945335388184,11.61402685546875,0.7544185519218445,-1.8949040174484253,0.7483099102973938,1.3431126475334167,0.740181827545166,-2.646507978439331,0.6533814609050751,-1.4400537490844727,0.5411044333130122
1767625016101809000,11.653808837890624,-3.388485908508301,1.995004177093506,2.736973285675049,11.654099853515625,0.3536909818649292,-1.2553280591964722,0.242513507604599,1.4841474056243897,1.1680694580078126,-2.7425952196121215,0.3252246558666229,-1.1352319806814193,0.34892622716724875
1767625016141873000,11.693872802734376,-2.623196601867676,1.701771259307861,1.5791654586791992,11.694164306640625,0.0195476878434419,-0.5418374538421631,-0.1392772793769836,1.6333390712738036,1.5669937133789062,-2.740120220184326,-0.014782935380935646,-0.8053647369146347,0.1527163077145815
1767625016181945000,11.733945068359375,-2.256256341934204,1.4156346321105957,0.8639853000640869,11.734237548828125,-0.1209513172507286,-0.2419026345014572,-0.3164281845092773,1.2663771688938141,1.5007393836975098,-2.10850305557251,-0.28625144362449645,-0.4449542373418808,-0.04679227583110331
1767625016222007300,11.77400732421875,-1.4954326152801514,1.4612760543823242,0.7795767784118652,11.774298583984375,-0.2431243658065796,-0.0928515195846557,-0.6090326309204102,0.7215343415737152,1.1157098770141602,-1.3707857131958008,-0.5345070838928223,-0.1933999333065003,-0.1468520026654005
1767625016242037800,11.794037841796875,-0.7791438102722168,0.9300107955932616,0.3721850216388702,11.774298583984375,-0.2431243658065796,-0.0928515195846557,-0.6090326309204102,0.31329254508018495,0.34354314804077146,-0.38280816078186036,-0.6134308695793151,-0.1092227059882134,-0.14477506093680859
1767625016262063400,11.8140634765625,0.3001008033752441,0.0698566436767578,0.0127591490745544,11.814355224609375,-0.1466076523065567,0.0024434609804302,-0.99876469373703,-0.25650938153266906,0.3489458084106446,0.48026485443115235,-0.4959003984928131,-0.17800613525323566,-0.003909539803862572
1767625016302133500,11.854133544921876,2.3166911602020264,-2.159062385559082,-0.4620435237884521,11.8544248046875,0.0299323964864015,-0.1209513172507286,-0.5338962078094482,0.07150337100028992,0.2548494338989258,0.5768650531768799,-0.4929682433605194,-0.40549234035424886,0.051434851065278044
1767625016382269700,11.934269775390623,2.0591087341308594,1.442647933959961,-1.985024333000183,11.934561767578124,0.5833762884140015,-0.5858197808265686,0.271224170923233,-0.26458622217178346,0.05645103454589848,-0.09743895530700683,-0.6596122920513153,-0.2692693937104195,-0.001954769715666771
1767625016422331400,11.974331298828124,-1.0124316215515137,0.9907941818237304,2.41964054107666,11.974623291015623,0.0335975885391235,-1.2302825450897217,-0.5943718552589417,-0.7786019802093506,-0.42352848052978515,-0.5915884494781494,-0.6824586451053619,-0.32180380672216413,0.05546656288206575
1767625016582579700,12.134579833984375,-4.15066385269165,-0.061981201171875,-1.3082629442214966,12.134871337890624,-0.5100724697113037,0.588263213634491,-1.4422528743743896,-0.08427691459655762,0.28095359802246095,-1.3891211032867432,-0.8150163948535919,-0.16823228001594542,0.11227702796459198
1767625016622641400,12.174641357421876,-2.1706466674804688,-2.33004093170166,-2.5573196411132812,12.174932373046875,0.140499010682106,-0.2602286040782928,-1.1129964590072632,0.905644154548645,-0.02461452484130859,-2.1942406415939333,-1.1010234951972961,0.29211576581001286,0.012828169763088215
1767625016662709500,12.21470947265625,-1.6709721088409424,1.3633480072021484,3.0095818042755127,12.215000244140626,0.3139847218990326,0.646906316280365,-1.196684956550598,0.6895817995071412,-0.16533203124999996,-2.313692021369934,-1.1349876046180725,0.8341975748538971,0.025289820134639734
1767625016702782000,12.254781982421877,-1.9664889574050903,-0.0851926803588867,2.96458101272583,12.255073486328126,0.0861319974064827,1.7159204483032229,-1.158811330795288,0.9445983052253724,-0.15155811309814454,-1.6786890268325805,-0.9748187303543091,0.9369451224803924,0.13512338921427727
1767625016742844200,12.29484423828125,-1.6096885204315186,0.2872066497802734,1.3393287658691406,12.295135986328123,0.0959058403968811,1.4801265001296997,-0.7641924023628235,1.229431974887848,0.331610107421875,-1.4930202960968018,-0.8823337316513061,1.1872776985168456,0.12009610310196876
1767625016782934800,12.334934814453124,-0.9756488800048828,0.0068883895874023,-0.0331804156303405,12.33522607421875,0.0390953756868839,1.1020009517669678,-0.6414085030555725,0.40830150842666624,0.12378044128417968,-1.341770350933075,-0.7778757810592651,1.2477533578872682,0.07281513586640356
1767625016802976500,12.3549765625,-1.2423030138015747,0.0858001708984375,-1.133151292800903,12.355312744140624,0.0653625801205635,0.9914342761039734,-0.6505714654922485,-0.22915534973144527,0.2072052001953125,-1.1311423182487488,-0.7022506713867187,1.0484891176223754,0.07183775231242176
1767625016823040800,12.375040771484375,-0.9147223830223083,0.3241996765136719,-1.0960705280303955,12.375332275390624,0.0775798857212066,0.9492846131324768,-0.6743952035903931,-0.3618104815483093,0.1473834991455078,-0.835837185382843,-0.7213096737861633,0.8422610104084015,0.0454483740031719
1767625016863144200,12.415144287109374,-0.9133487939834596,0.3319311141967773,-0.2227032780647277,12.415435546875,0.0812450796365737,0.7195992469787598,-0.7806857824325562,-0.21765432357788078,0.19222030639648438,-0.4695574164390564,-0.737192165851593,0.7359704434871673,-0.001954768598079687
1767625016903242500,12.455242431640626,-0.1331628561019897,-0.01190185546875,0.6760531067848206,12.4555341796875,-0.0360410511493682,0.4489859640598297,-0.8594874143600464,0.0013557195663452468,0.1503021240234375,-0.042122411727905276,-0.7112914800643921,0.6838025510311126,-0.06572909951210022
1767625016943341800,12.495341796875,0.8557499647140503,0.2310724258422851,0.6876003742218018,12.49563330078125,-0.197920337319374,0.5705481171607971,-0.720820963382721,0.08223329782485966,0.10722007751464843,0.32118178606033326,-0.6806260466575622,0.6400645911693573,-0.1319468915462494
1767625016983426600,12.535426513671876,0.8948720097541809,-0.1237907409667968,-0.0381010770797729,12.53571875,-0.2535090744495392,0.7305948138237,-0.5210680365562439,-0.13232960700988766,0.08341655731201172,0.6732493877410889,-0.6046344101428984,0.6291911900043488,-0.19120081961154933
1767625017003471600,12.5554716796875,0.9017986059188844,0.1087894439697265,-0.6916826367378235,12.53571875,-0.2535090744495392,0.7305948138237,-0.5210680365562439,-0.5699802517890931,0.07938213348388672,0.8082998991012573,-0.5020090460777282,0.6610783576965332,-0.21123719811439515
1767625017023524000,12.575524169921875,0.8469892144203186,0.2129135131835937,-1.2955178022384644,12.575815673828124,-0.2150245606899261,0.665232241153717,-0.4007275998592376,-0.8948992609977722,-0.018353080749511697,0.668223786354065,-0.42833870053291323,0.6713408946990966,-0.18252653181552886
1767625017043565300,12.5955654296875,0.5420897006988525,-0.032073974609375,-1.512200117111206,12.59590185546875,-0.1362229436635971,0.608421802520752,-0.3463605940341949,-0.8765350341796875,-0.1347972869873047,0.6427279949188233,-0.3769038498401641,0.6503271341323853,-0.15430455803871151
1767625017063622700,12.61562255859375,0.1553694009780883,-0.257603645324707,-0.9369946718215942,12.615912841796876,-0.0543670058250427,0.6218608021736145,-0.3524692356586456,-0.6559746563434601,-0.34484405517578126,0.8260596752166748,-0.30323350429534907,0.7072597861289978,-0.13414600491523737
1767625017103713800,12.6557138671875,0.7673930525779724,-0.7060117721557617,0.0537200570106506,12.656005126953126,-0.1123992055654525,0.6255260109901428,-0.2638937830924988,-0.5863209068775177,-0.8947362899780273,0.8755629420280456,-0.07794640660285945,0.6351776897907258,-0.043860122561454745
1767625017143806700,12.695806640625,1.818457007408142,-0.9414443969726562,0.4111192524433136,12.69609814453125,-0.1527163088321685,1.0152580738067627,-0.1527163088321685,-0.007314711809158325,-1.0227609634399415,1.0236895442008973,0.3207042455673218,0.5745798528194428,0.010873401165008557
1767625017223959300,12.775959228515624,1.0945055484771729,-2.5365476608276367,-0.9472490549087524,12.776251220703124,0.2364048510789871,0.3048217594623565,0.7257078886032104,0.8083082616329194,-0.6906570434570313,1.1048755526542664,0.8819672405719757,0.5415931344032288,0.007574728131294256
1767625017264038000,12.816037841796875,1.2827227115631104,-0.6721973419189453,1.3828308582305908,12.81632958984375,0.1374446749687194,0.3054326176643371,1.6468926668167114,0.9119124710559845,-0.8110509872436523,0.5765303134918213,1.2655906140804292,0.22858577966690058,0.155892813205719
1767625017304133400,12.85613330078125,0.5612994432449341,1.4029159545898438,3.141120195388794,12.8564248046875,-0.0708603709936142,0.4569272100925445,2.453845739364624,0.8789543509483337,-0.6837730407714844,-0.12985341548919677,1.5894713640213012,-0.30237830877304084,0.3043330729007721
1767625017424390000,12.976389892578124,-1.874333143234253,-1.3079814910888672,0.5717411041259766,12.976681640625,0.6291912198066711,-0.9395107626914978,1.654223084449768,1.1118998885154725,-0.22573490142822267,-0.7816370248794555,1.6989384174346924,-0.6520375669002533,0.4042706280946732
1767625017464466000,13.0164658203125,-1.7134616374969482,-0.3050546646118164,0.2463286519050598,13.01675732421875,0.5894849896430969,-1.6395623683929443,1.4666874408721924,0.991714346408844,-0.05418663024902345,-1.5006266355514526,1.600589108467102,-0.9982759773731231,0.5425705224275589
1767625017504555000,13.056554931640624,-2.164412498474121,-0.2463569641113281,0.2174786329269409,13.056846435546875,0.7360926270484924,-1.443474531173706,1.273043155670166,0.7044662117958069,-0.17845439910888672,-2.139344263076782,1.313726782798767,-1.3807998061180116,0.722042727470398
1767625017524602000,13.07660205078125,-2.312225341796875,0.1855440139770507,0.7819031476974487,13.07693896484375,0.8289441466331482,-1.4257594347000122,1.1551461219787598,1.1478240609169006,0.4568310737609863,-2.4459939002990723,1.107376503944397,-1.4479949712753295,0.6824586570262909
1767625017544637700,13.0966376953125,-2.632288694381714,0.7815771102905273,1.7048795223236084,13.096928955078123,0.826500654220581,-1.455691933631897,1.0195341110229492,1.5520416736602782,1.0149505615234375,-2.780882215499878,0.8229576483368873,-1.2630249619483949,0.5718920417129993
1767625017584724500,13.136724365234375,-3.407581329345703,1.868445873260498,2.7885303497314453,13.13701611328125,0.4312708675861358,-1.2754865884780884,0.6224716901779175,1.627632451057434,1.4359628677368164,-2.9205305576324463,0.48563786298036576,-1.0329731166362763,0.4001167334616184
1767625017624798000,13.1767978515625,-3.387903213500977,2.4855427742004395,2.267416715621948,13.177090087890624,0.0366519130766391,-0.7147123217582703,0.0445931628346443,1.4919506907463072,1.6741771697998047,-2.7560111045837403,0.10677924901247024,-0.7745771288871766,0.2221105992794037
1767625017664864500,13.216864501953124,-2.862654209136963,1.8587045669555664,0.5954325199127197,13.21715625,-0.1227839142084121,-0.2932153046131134,-0.413555771112442,1.1974267423152922,1.7215212821960448,-2.2842977046966553,-0.24495696276426315,-0.5101946413516998,0.0445931635797024
1767625017704926000,13.256926025390625,-1.4896280765533447,1.3766155242919922,0.1034943461418151,13.257218017578126,-0.0610865242779254,-0.1337794959545135,-0.7391469478607178,0.6271970212459563,1.4168886184692382,-1.465090799331665,-0.5423261687159538,-0.2883283942937851,-0.051801373064517944
1767625017724961300,13.276961181640624,-0.273721694946289,1.0182976722717283,0.2322597801685333,13.257218017578126,-0.0610865242779254,-0.1337794959545135,-0.7391469478607178,0.11918827891349792,0.6732247352600098,-0.297625732421875,-0.6561914503574371,-0.2535090774297714,-0.051557026803493465
1767625017745007600,13.297007568359374,0.688453197479248,0.3452825546264648,-0.0626182556152343,13.297299560546875,-0.0507018156349659,-0.1661553531885147,-0.8643743395805359,-0.206935054063797,0.6179675102233887,0.5839105606079101,-0.476841413974762,-0.3484375387430191,0.12205087393522265
1767625017785070000,13.337070068359376,2.4494221210479736,-1.2327766418457031,-0.2726269960403442,13.337362060546877,0.0378736443817615,-0.5406157374382019,-0.5247332453727722,-0.7091385543346405,-0.1737980842590332,0.27264723777770994,-0.5896071314811706,-0.1813048094511032,0.0580321989953518
1767625017865205800,13.417205810546877,1.545027256011963,1.582418441772461,-1.0351841449737549,13.417497314453126,0.7452555894851685,-0.7678576111793518,0.4831944108009338,-1.0625338315963746,-0.520269775390625,-0.1285414695739746,-0.6647435545921325,-0.16517796516418456,0.09602801799774169
1767625018065591300,13.61759130859375,-3.0459446907043457,-2.582212448120117,-2.4075231552124023,13.6178828125,-0.3811798989772796,0.7018841505050659,-1.3029755353927612,-0.43849670886993397,-0.12843494415283202,-0.7597921371459961,-0.7837400913238525,-0.008185598254203796,0.07391469553112981
1767625018105666300,13.657666259765625,-2.279665231704712,-0.7140607833862305,-1.5347166061401367,13.6579580078125,0.128892570734024,-0.0531452745199203,-1.1148290634155271,-0.21406487226486198,-0.20474929809570314,-1.6865517139434814,-0.9842260718345642,0.45289548933506013,-0.02015855014324187
1767625018145741000,13.697740966796877,-2.4678001403808594,2.3044567108154297,3.057567358016968,13.698032958984374,-0.1612684279680252,0.6188064813613892,-1.4593570232391355,-0.1317168474197387,-0.7056062698364258,-2.269208812713623,-1.386297583580017,0.959424951672554,-0.255708184838295
1767625018185821200,13.7378212890625,-2.184375762939453,-1.6143484115600586,0.8495321869850159,13.738113037109375,-0.432492583990097,1.7647897005081177,-1.5271631479263306,0.2506139039993287,-0.061462593078613306,-1.9395620822906494,-1.340604877471924,1.0550864487886429,-0.19425514340400693
1767625018205863200,13.75786328125,-1.3682582378387451,-0.9218664169311525,-0.6234440207481384,13.738113037109375,-0.432492583990097,1.7647897005081177,-1.5271631479263306,0.37706791162490855,0.2138803482055664,-1.7548899888992309,-1.2952786803245544,1.2189205050468446,-0.2206445227842778
1767625018225912300,13.777912353515624,-1.3977110385894775,0.6385059356689453,-0.4958693981170654,13.77820361328125,-0.0739146918058395,1.1801916360855105,-1.074512004852295,-0.23443137407302855,-0.21385211944580082,-1.350402331352234,-1.1414628267288207,1.1514809846878051,-0.1838704343419522
1767625018266009000,13.818009033203126,-1.3563047647476196,0.662653923034668,-0.9024465680122375,13.818301025390625,-0.0030543261673301,0.7660250067710876,-0.8881980776786804,-0.38558908104896544,-0.1044000625610352,-1.104796302318573,-1.0228327870368956,0.827844575047493,-0.11362093347124753
1767625018306116400,13.858116455078124,-0.445361852645874,0.1657943725585937,7.09295272827e-05,13.85840771484375,0.0226020142436027,0.2816088795661926,-0.6902777552604675,-0.4374423325061798,0.11623039245605464,-0.8739106178283691,-0.9059131741523743,0.46095890700817116,-0.04178318190388379
1767625018346221300,13.89822119140625,-0.9563456177711488,-1.0670881271362305,0.0937436521053314,13.8985126953125,-0.0812450796365737,0.1466076523065567,-0.9340129494667052,-0.5697543442249298,0.23776664733886715,-0.6287747740745544,-0.8552113533020019,0.24129176884889603,-0.05143485325388606
1767625018366270700,13.918270751953123,-0.2138298153877258,0.1812858581542968,-0.8827102780342102,13.91860693359375,-0.0733038261532783,-0.0696386396884918,-0.9425650835037231,-0.25648924708366394,0.09009246826171871,-0.37019163370132446,-0.8440936088562012,0.0905302284285426,-0.09761626571416851
1767625018386327000,13.9383271484375,-0.172031819820404,1.2461872100830078,-1.1574294567108154,13.93861865234375,-0.1221730485558509,0.0818559452891349,-0.8210029006004333,-0.2948736250400543,0.0023054122924804467,-0.21842460632324218,-0.8520348548889161,0.047647487930953455,-0.15735888779163357
1767625018426397200,13.978397216796877,-0.0633890628814697,-0.0757169723510742,0.6638789176940918,13.9786884765625,-0.2339613884687423,0.0122173046693205,-0.8326093554496765,-0.3681385099887848,0.22028045654296874,0.15558863878250123,-0.7858170628547668,0.05265658479183908,-0.18301522731781
1767625018466494200,14.018494140625,0.3134732842445373,-0.2731409072875976,-0.1918509602546692,14.01878564453125,-0.2761110961437225,0.067195177078247,-0.7299839854240417,-0.25345128774642944,0.26817893981933594,0.3336166024208069,-0.692843371629715,0.14001031499356026,-0.19645426422357554
1767625018486542300,14.038542236328125,0.9137206077575684,0.0227870941162109,-0.2725807726383209,14.03887841796875,-0.209526777267456,0.1716531366109848,-0.6029239892959595,-0.043354398012161226,-0.07638835906982419,0.35604202747344976,-0.597670567035675,0.22345450650900597,-0.19840903282165526
1767625018506611200,14.058611083984376,0.6763100028038025,0.4207782745361328,-0.3092741668224334,14.058903564453123,-0.140499010682106,0.3671300113201141,-0.4776966273784637,-0.14854158163070677,-0.2324739456176758,0.5268959164619446,-0.4849048376083374,0.3508809953927994,-0.18338174819946287
1767625018546709000,14.098708984375,-0.0599046945571899,-0.4766492843627929,-0.1069450080394744,14.099000732421874,-0.1319468915462494,0.4990769028663635,-0.3451388776302337,-0.4428729057312012,-0.43584365844726564,0.7837602138519287,-0.3398854249157011,0.5227784782648086,-0.16456709802150724
1767625018586870300,14.138870361328124,0.7908803820610046,-0.856144905090332,0.1379429996013641,14.139162109375,-0.1588249653577804,0.6493497490882874,-0.2687807083129883,-1.0945835292339325,-0.9538028717041016,0.8133060455322265,-0.17140879267826675,0.5529552221298217,-0.0778242349624634
1767625018626962700,14.178962646484376,1.597794771194458,-1.2899894714355469,-1.6635075807571411,14.179255126953125,-0.1820378452539444,0.9266825914382936,-0.0048869219608604,-1.080838692188263,-1.318669319152832,0.9232161402702331,0.11301007037982344,0.4813618155196309,-0.043127088248729725
1767625018667048000,14.2190478515625,1.0614497661590576,-2.5670089721679688,-3.5311338901519775,14.21933984375,0.2241875380277633,0.3225368559360504,0.2394591718912124,-1.0292295575141908,-1.491169548034668,1.006215214729309,0.37091738348826764,0.3833790306001902,-0.010140365362167388
1767625018707125500,14.25912548828125,1.2258604764938354,-1.4035539627075195,-0.2405499815940857,14.259417236328124,0.0329867228865623,0.0091629782691597,0.9443976879119872,-0.769787484407425,-1.2682130813598633,0.9133985161781311,0.7717671549879015,0.29431487955152985,0.06646213531494136
1767625018727166000,14.279166015625,0.3550906777381897,-1.3391504287719729,0.1511006653308868,14.259417236328124,0.0329867228865623,0.0091629782691597,0.9443976879119872,0.10664905905723572,-0.65367431640625,0.6427062958478927,1.2302826195955276,0.15296065844595425,0.11410962492227547
1767625018747224600,14.299224609375,0.3267968893051147,0.2586374282836914,1.4351533651351929,14.29951611328125,0.2241875380277633,0.2040289938449859,1.7354681491851809,0.7519839584827424,-0.3433271408081055,0.05416695773601532,1.6343089103698731,0.17189747728407376,0.09957103282213205
1767625018787321900,14.33932177734375,0.2443336695432663,1.7827043533325195,2.718675136566162,14.339613525390623,0.0561996027827262,0.2199114859104156,2.2876904010772705,0.5222540080547333,-0.611328125,-0.7751861602067948,1.8351613998413085,0.11630873996764417,0.19291124045848843
1767625018827427600,14.379427490234375,-1.8812469244003296,-1.015273094177246,-0.3044593930244446,14.379719970703125,0.1514945775270462,0.4172209501266479,2.2595906257629395,0.4029693007469177,-0.6803140640258789,-1.3782615333795547,1.9596557378768922,-0.1513724207878113,0.327668111026287
1767625018867664400,14.419664306640623,-2.920905113220215,-2.743558883666992,-1.3891997337341309,14.4199560546875,0.4996877610683441,-0.2687807083129883,1.948660135269165,0.11633771657943726,-0.8451238632202148,-1.8976864248514176,1.8913609981536865,-0.5817880809307099,0.4265061095356941
1767625018907743000,14.459742919921876,-2.6602861881256104,-1.6840801239013672,-0.4453228712081909,14.460034423828125,0.7067710757255554,-1.3292428255081177,1.5668693780899048,-0.42084814310073854,-1.2294593811035157,-2.360328125953674,1.712621808052063,-1.0153802394866944,0.5589416950941086
1767625018947852500,14.4998525390625,-2.270327568054199,-0.5654115676879883,0.0019954442977905,14.500144287109377,0.7183775305747986,-1.9480493068695068,1.3939944505691528,-0.2661064386367798,-0.9689495086669921,-2.43888201713562,1.4701082944869994,-1.4357776880264281,0.6974859297275543
1767625018967893200,14.519893310546877,-2.0688748359680176,-0.1389732360839843,0.0327458381652832,14.500144287109377,0.7183775305747986,-1.9480493068695068,1.3939944505691528,0.4609338045120239,-0.13039588928222648,-2.523927021026611,1.1982732653617858,-1.6698612451553345,0.7108027935028076
1767625018987957800,14.539957763671875,-2.2740163803100586,0.2872762680053711,0.4692491292953491,14.5402490234375,0.8442157506942749,-1.6847662925720217,1.047023057937622,0.7665857076644897,0.554219436645508,-2.508977174758911,0.9035918667912484,-1.5781092762947082,0.6089104741811753
1767625019068177000,14.620177001953126,-3.346130132675171,1.449209213256836,2.2460014820098877,14.620468994140625,0.5662720799446106,-1.4391984939575195,0.5894849896430969,0.7843337416648865,0.8874389648437502,-2.444461727142334,0.594249714910984,-1.3249667048454286,0.4759861961007118
1767625019108266200,14.660266357421875,-2.58553695678711,1.738996505737305,1.0829366445541382,14.6605576171875,0.1973094791173935,-0.8704829812049866,0.0934623852372169,0.8925412893295288,1.0491943359375002,-2.2762497901916503,0.23848180323839188,-1.076100194454193,0.3303559212014079
1767625019148338400,14.70033837890625,-1.9477503299713137,1.1006860733032229,0.0907356142997741,14.700630126953126,0.0537561401724815,-0.6823364496231079,-0.1527163088321685,0.9161953449249267,1.0590963363647463,-1.9625786781311034,-0.10213666409254074,-0.84006187915802,0.15735888723284008
1767625019188432600,14.7404326171875,-1.2278151512145996,0.6698036193847656,0.5737835764884949,14.74072509765625,-0.0097738439217209,-0.7037167549133301,-0.384845107793808,0.5304880678653717,0.5943687438964845,-1.1360010147094728,-0.30958650559186934,-0.6687752723693847,0.0486248740926385
1767625019228542200,14.780542236328126,-0.7056608200073242,0.3367862701416015,0.5875194072723389,14.780833984375,-0.0207694191485643,-0.504574716091156,-0.656069278717041,0.27285470366477965,-0.11553020477294909,-0.10885229110717783,-0.2896723002195358,-0.5789780795574189,0.06597344670444727
1767625019268655400,14.8206552734375,0.7867581844329834,-0.8744287490844727,0.3174650967121124,14.8209462890625,0.0226020142436027,-0.5827654600143433,-0.4477642178535461,-0.10784887671470637,-0.415473175048828,0.747020959854126,-0.17617354094982146,-0.5376835942268372,0.1876578027382493
1767625019308754000,14.86075390625,2.5502066612243652,-1.8104982376098633,-0.205230176448822,14.8610458984375,0.2840523421764374,-0.4214970171451568,0.1930334120988845,-0.6069644987583159,-0.1734747886657714,1.0831832408905029,-0.016249021887779234,-0.4921130478382111,0.32204815559089184
1767625019348833500,14.90083349609375,2.331615924835205,-0.3990287780761719,-1.812782287597656,14.901125732421876,0.6621779203414917,-0.4758640229701996,0.4147774875164032,-0.8869650900363922,0.3042571067810059,1.1275594711303711,0.0851546108722687,-0.5461135327816009,0.406591908633709
1767625019368882000,14.9208818359375,0.4529962539672851,1.8797955513000488,-1.9217945337295532,14.901125732421876,0.6621779203414917,-0.4758640229701996,0.4147774875164032,-0.6635487675666808,-0.16738958358764638,0.8105745315551758,0.1204626202583313,-0.5154480934143066,0.4139222912490368
1767625019388917500,14.94091748046875,-0.4837796688079834,2.7254457473754883,-0.812483549118042,14.941208740234377,0.4019493460655212,-0.7745771408081055,-0.1490511149168014,-0.1654862642288207,0.24567461013793954,-0.15369048118591308,-0.0012217372655868198,-0.3282789885997772,0.30702087208628653
1767625019469086700,15.021086669921877,-0.7981665134429932,-3.2326622009277344,1.434546709060669,15.0213779296875,0.0592539273202419,-0.4294382631778717,-0.271224170923233,0.3442185163497925,0.6691291809082032,-1.6440669536590575,-0.32742376625537867,0.06572909355163574,0.12986995205283164
1767625019509162000,15.061161865234377,-2.271118402481079,0.2548227310180664,2.2850823402404785,15.06145361328125,-0.2504547536373138,0.5143485069274902,-0.4153883755207062,0.45236399173736574,0.23836336135864267,-2.2496964931488037,-0.655702754855156,0.21380282640457154,-0.08173376694321632
1767625019549247000,15.1012470703125,-5.120266437530518,1.7182440757751465,0.7357416152954102,15.10153857421875,-0.2235766798257827,1.4941763877868652,-1.2162326574325562,0.32010798454284667,-0.5612660408020018,-2.5217012643814085,-0.8367632031440735,0.313373863697052,-0.15784757956862452
1767625019589334300,15.141334228515625,-2.5751514434814453,-0.2740335464477539,-1.381067156791687,15.1416259765625,-0.3958406746387481,0.2645046412944793,-1.226617455482483,0.47611217498779296,0.3651728630065919,-2.7376683950424194,-1.0032850801944733,0.44813073575496676,-0.17898351699113843
1767625019629409000,15.181408935546877,-1.8438035249710083,-1.2727012634277344,-1.4737635850906372,15.181701171875,0.0213802829384803,-0.2767219543457031,-1.0543533563613892,0.2216946840286255,0.12519884109497076,-2.6281566858291625,-1.127535080909729,0.548679170012474,-0.14233160167932507
1767625019669498600,15.22149853515625,-1.8780021667480469,1.3995323181152344,2.2145676612854004,15.221789794921875,-0.0464257597923278,0.2443460971117019,-1.103833556175232,0.2665102005004883,-0.25882740020751943,-1.8714677095413208,-1.0916162252426147,0.4532620280981064,-0.11105530112981796
1767625019709601500,15.2616015625,-1.723559856414795,-0.9450473785400392,1.0129948854446411,15.26189306640625,-0.067195177078247,1.0170906782150269,-1.0366383790969849,0.6660907149314881,-0.18500957489013664,-1.5886398077011108,-0.9926560521125793,0.6464176088571548,-0.03872885704040526
1767625019729654500,15.281654541015625,-1.3368215560913086,-0.2018871307373047,0.959819197654724,15.26189306640625,-0.067195177078247,1.0170906782150269,-1.0366383790969849,0.8567959070205688,0.05009021759033212,-1.5212573051452636,-0.894306755065918,0.8934515148401261,-0.03298672363162038
1767625019749716700,15.301716796875,-1.1610119342803955,0.0950555801391601,0.6168354153633118,15.3020087890625,-0.0342084541916847,1.2302825450897217,-0.7318165898323059,0.3115593433380127,-0.2399324417114257,-1.3991254329681397,-0.786061418056488,1.0362718105316162,-0.013683381676673878
1767625019789826000,15.341825927734376,-1.5068910121917725,-0.0972023010253906,-0.5202376246452332,15.34211767578125,0.0500909499824047,0.9584475755691528,-0.5626068711280823,-0.004218518733978294,-0.06969566345214831,-1.2465558648109436,-0.7233866333961487,0.921795654296875,0.007819075137376778
1767625019809875200,15.361875244140624,-1.2673428058624268,-0.0505809783935546,-0.5116151571273804,15.34211767578125,0.0500909499824047,0.9584475755691528,-0.5626068711280823,-0.4685205578804016,0.09540882110595716,-1.041838276386261,-0.6569244861602783,0.7689571619033814,0.029932396858930555
1767625019829930500,15.381930419921876,-0.9607120156288148,-0.0938634872436523,-0.5658944249153137,15.3822216796875,0.0403171069920063,0.4447098970413208,-0.7232644557952881,-0.6236152410507202,0.07238025665283218,-0.8387586355209351,-0.6517932176589966,0.55613172352314,0.034330626763403406
1767625019870011600,15.42201171875,-0.3132336139678955,0.6236352920532227,-1.3616909980773926,15.4223037109375,0.0433714315295219,0.2528982162475586,-0.7043276429176331,-0.4279289901256561,0.1519931793212892,-0.5680837392807007,-0.686368191242218,0.3723834566771984,0.00940732527524232
1767625019910114300,15.4621142578125,-0.1456137299537658,-0.0200872421264648,-0.1586380004882812,15.462406494140623,-0.0122173046693205,0.1661553531885147,-0.7061602473258972,-0.2557385802268982,0.19435081481933608,-0.29316977262496946,-0.7231422781944274,0.1671327330172062,-0.030787608586251743
1767625019930161000,15.482160888671874,-0.1535165309906005,0.3008623123168945,0.4581936299800873,15.482497802734375,-0.0745255574584007,0.0397062413394451,-0.7354817390441895,-0.17197504043579098,0.24919338226318372,0.15232510566711427,-0.705915880203247,0.04899139478802682,-0.07721336614340543
1767625019950222600,15.50222265625,0.1072270274162292,0.1612071990966797,0.3493368923664093,15.5025146484375,-0.1508837193250656,-0.0678060427308082,-0.7464773058891296,-0.024856674671173074,0.09425010681152356,0.4369499921798706,-0.6924768447875976,-0.03078760728240012,-0.12424998860806227
1767625019990326000,15.542325927734376,1.266762375831604,0.1803493499755859,-0.1470767259597778,15.542616943359375,-0.1918116807937622,-0.1459967941045761,-0.637132465839386,-0.24983097314834596,0.0619579315185548,0.5034141063690185,-0.6587570786476136,-0.05754350647330284,-0.1707979217171669
1767625020010381000,15.562381103515625,1.1098908185958862,-0.1510810852050781,-0.626099169254303,15.542616943359375,-0.1918116807937622,-0.1459967941045761,-0.637132465839386,-0.5078677952289581,0.10635375976562514,0.4803478240966797,-0.6098878622055054,-0.08698721081018447,-0.2018298774957657
1767625020030444000,15.582444091796877,0.1867068409919738,-0.1815481185913086,-1.2835094928741455,15.582750732421877,-0.2449569702148437,0.0323758572340011,-0.5375614166259766,-0.6466741979122161,0.11452083587646497,0.5662456631660462,-0.5542991280555725,-0.11472049355506897,-0.20500637590885162
1767625020070563000,15.62256298828125,-0.2688479423522949,0.5228414535522461,-0.8319904804229736,15.6228544921875,-0.2296853363513946,-0.107512280344963,-0.4911356568336487,-0.5397381842136383,0.07197933197021499,0.4751098155975342,-0.5188689410686493,-0.07794640585780145,-0.17800613343715666
1767625020090610700,15.642610595703124,0.5367162227630615,0.2020425796508789,-0.344695121049881,15.642947265625,-0.1667662113904953,-0.2064724564552307,-0.4685336351394653,-0.28073632121086123,0.016592788696289208,0.33702772855758667,-0.4520402789115906,0.02321287766098975,-0.15491542816162104
1767625020110646300,15.662646240234375,0.8110831379890442,-0.032358169555664,0.3876033425331116,15.662937255859376,-0.0568104684352874,0.0378736443817615,-0.4599815309047699,-0.21383923888206482,-0.0864904403686522,0.5525293827056885,-0.3635869905352592,0.0812450774013996,-0.13671164214611048
1767625020150755800,15.702755859375,0.4194803833961487,-0.428013801574707,0.6689101457595825,15.70304736328125,-0.0763581544160842,0.3597996234893799,-0.3029891550540924,-0.6696818768978119,-0.7682085037231443,0.47093863487243653,-0.24178046137094497,0.08845328614115718,-0.04874704480171201
1767625020190873300,15.742873291015623,1.264215111732483,-0.6969642639160156,-0.9490240812301636,15.7431650390625,-0.1539380401372909,0.3225368559360504,-0.0952949747443199,-0.9445371031761169,-1.2937265396118163,0.5479511380195617,-0.047280968725681306,0.014782934635877609,0.022113323211669943
