datetime,time,seconds_elapsed,z,y,x
2026-01-05 13:54:05.457,1.767621245461099e+18,0.10909912109375,-0.0006108652451075,0.0006108652451075,0.0018325957935303
2026-01-05 13:54:05.490,1.7676212455012078e+18,0.149207763671875,-0.0012217305193189,0.0009162978676613,0.0024434609804302
2026-01-05 13:54:05.523,1.7676212455413164e+18,0.18931640625,-0.0006108652451075,0.0006108652451075,0.0030543261673301
2026-01-05 13:54:05.556,1.7676212455814295e+18,0.229429443359375,-0.0006108652451075,0.0006108652451075,0.0030543261673301
2026-01-05 13:54:05.589,1.7676212456215444e+18,0.26954443359375,0.0006108652451075,0.0006108652451075,0.0030543261673301
2026-01-05 13:54:05.622,1.7676212456416038e+18,0.28960383757134534,0.0006108652451075,0.0006108652451075,0.0030543261673301
2026-01-05 13:54:05.655,1.767621245661663e+18,0.3096630859375,0.0006108652451075,0.0006108652451075,0.0021380247746545433
2026-01-05 13:54:05.688,1.767621245701786e+18,0.3497861328125,0.0006108652451075,0.0006108652451075,0.0012217304902151
2026-01-05 13:54:05.721,1.7676212457419108e+18,0.389910888671875,-0.0006108652451075,0.0012217281499066741,0.0012217304902151
2026-01-05 13:54:05.754,1.7676212457820262e+18,0.430026123046875,-0.0012217304902151,0.0012217281499066741,0.0012217304902151
2026-01-05 13:54:05.787,1.767621245802084e+18,0.4500840621750385,-0.0015271619571665305,0.0006108652451075,0.0012217304902151
2026-01-05 13:54:05.820,1.767621245822142e+18,0.470141845703125,-0.0015271619571665305,0.0006108652451075,0.0012217304902151
2026-01-05 13:54:05.853,1.767621245862252e+18,0.510251953125,-0.0012217304902151,0.0006108652451075,0.0018325957935303
2026-01-05 13:54:05.886,1.7676212459023613e+18,0.550361328125,-0.0012217304902151,0.0006108652451075,0.0018325957935303
2026-01-05 13:54:05.919,1.7676212459424773e+18,0.590477294921875,-0.00030543262255375,0.0003054338072598065,0.0018325957935303
2026-01-05 13:54:05.952,1.7676212459825994e+18,0.630599365234375,-0.00030543262255375,0.0003054326225538,0.0018325957935303
2026-01-05 13:54:05.985,1.7676212460026583e+18,0.650658203125,-0.0006108652451075,0.0006108652451075,0.0018325957935303
2026-01-05 13:54:06.018,1.767621246022717e+18,0.670717041015625,-0.00030543262255375,0.0003054326225538,0.0018325957353226498
2026-01-05 13:54:06.051,1.7676212460628316e+18,0.71083154296875,-0.00030543262255375,0.0003054326225538,0.0018325957353226498
2026-01-05 13:54:06.084,1.767621246102928e+18,0.750927978515625,0.0009162966829552434,0.0006108628756954368,0.0015271690071952198
2026-01-05 13:54:06.117,1.7676212461430474e+18,0.79104736328125,0.0009162966829552434,0.0006108628756954368,0.0015271690071952198
2026-01-05 13:54:06.150,1.7676212461631078e+18,0.8111077438251332,0.0009162966829552434,0.0006108628756954368,0.0015271690071952198
2026-01-05 13:54:06.183,1.767621246183168e+18,0.83116796875,0.0006108652451075,0.0006108628756954368,0.0024434609804302
2026-01-05 13:54:06.216,1.7676212462232934e+18,0.87129345703125,-0.0006108652451075,0.0006108628756954368,0.0024434609804302
2026-01-05 13:54:06.249,1.767621246263416e+18,0.911416015625,-0.0006108652451075,0.0018325957935303,0.0024434609804302
2026-01-05 13:54:06.282,1.7676212463035325e+18,0.951532470703125,-0.0006108652451075,0.0018325957935303,0.0024434609804302
2026-01-05 13:54:06.315,1.7676212463436536e+18,0.991653564453125,0.0,0.001069014208042025,0.0024434609804302
2026-01-05 13:54:06.348,1.7676212463687455e+18,1.01674560546875,0.0,0.001069014208042025,0.0024434609804302
2026-01-05 13:54:06.381,1.7676212463938376e+18,1.041837646484375,0.0006108652451075,0.001069014208042025,0.0024434609804302
2026-01-05 13:54:06.414,1.7676212464239155e+18,1.07191552734375,0.0,0.001069014208042025,0.0024434609804302
2026-01-05 13:54:06.447,1.767621246464041e+18,1.112041015625,0.0,0.0012217304902151,0.0024434609804302
2026-01-05 13:54:06.480,1.7676212465041587e+18,1.15215869140625,0.0,0.0012217304902151,0.0027488935738801496
2026-01-05 13:54:06.513,1.7676212465442772e+18,1.19227734375,0.0,0.0018325957935303,0.0027488935738801496
2026-01-05 13:54:06.546,1.7676212465643827e+18,1.2123828125,-0.0006108652451075,0.0018325957935303,0.0030543261673301
2026-01-05 13:54:06.579,1.7676212465844035e+18,1.232403564453125,-0.0006108652451075,0.0018325957935303,0.0030543261673301
2026-01-05 13:54:06.612,1.7676212466245222e+18,1.272522216796875,0.0,0.0012217304902151,0.0030543261673301
2026-01-05 13:54:06.645,1.767621246664647e+18,1.31264697265625,-0.00030543262255375,0.0006108652451075,0.0030543262837454
2026-01-05 13:54:06.678,1.7676212467047698e+18,1.352769775390625,-0.0006108652451075,0.0,0.0027488936320878
2026-01-05 13:54:06.711,1.7676212467248292e+18,1.3728291015625,-0.0006108652451075,0.0,0.0024434609804302
2026-01-05 13:54:06.744,1.7676212467448883e+18,1.392888427734375,-0.00030543262255375,-0.0006108652451075,0.0024434609804302
2026-01-05 13:54:06.777,1.7676212467850056e+18,1.433005615234375,-0.0006108652451075,-0.0006108652451075,0.0024434609804302
2026-01-05 13:54:06.810,1.7676212468251182e+18,1.4731181640625,-0.0006108652451075,0.0,0.0024434609804302
2026-01-05 13:54:06.843,1.7676212468652383e+18,1.51323828125,-0.0006108581368712107,0.0,0.0024434609804302
2026-01-05 13:54:06.876,1.7676212469053663e+18,1.5533662109375,-0.0006108581368712107,0.0,0.0021380295716861937
2026-01-05 13:54:06.909,1.7676212469254218e+18,1.5734216751386452,-0.0006108581368712107,0.000610862875695437,0.0024434609804302
2026-01-05 13:54:06.942,1.7676212469454774e+18,1.593477294921875,0.0,0.0012217304902151,0.0024434609804302
2026-01-05 13:54:06.975,1.767621246985595e+18,1.633594970703125,-0.0006108581368712107,0.0012217304902151,0.0021380295716861937
2026-01-05 13:54:07.008,1.7676212470257085e+18,1.67370849609375,0.0,0.0012217304902151,0.0024434609804302
2026-01-05 13:54:07.041,1.7676212470658248e+18,1.71382470703125,0.0,0.0012217304902151,0.0024434609804302
2026-01-05 13:54:07.074,1.7676212471059482e+18,1.7539482421875,0.0,0.0012217304902151,0.0024434609804302
2026-01-05 13:54:07.107,1.7676212471260485e+18,1.774048583984375,0.0,0.0006108652451075,0.0024434609804302
2026-01-05 13:54:07.140,1.7676212471460685e+18,1.794068359375,0.0006108652451075,0.0006108652451075,0.0024434609804302
2026-01-05 13:54:07.173,1.767621247186189e+18,1.83418896484375,0.0012217304902151,0.0006108652451075,0.0012217304902151
2026-01-05 13:54:07.206,1.7676212472263132e+18,1.874313232421875,0.0012217304611113,0.0006108652451075,0.0012217304902151
2026-01-05 13:54:07.239,1.7676212472664415e+18,1.91444140625,0.0012217304611113,0.0012217304902151,0.0018325957353226498
2026-01-05 13:54:07.272,1.767621247286505e+18,1.9345047607421875,0.0012217304611113,0.0012217304902151,0.0012217304902151
2026-01-05 13:54:07.305,1.7676212473065682e+18,1.954568115234375,-0.0006108652451075,0.0012217304902151,0.0012217304902151
2026-01-05 13:54:07.338,1.7676212473466967e+18,1.99469677734375,-0.0012217304902151,0.0006108652451075,0.0012217304902151
2026-01-05 13:54:07.371,1.7676212473868137e+18,2.034813720703125,-0.0012217304902151,-0.0012217304902151,0.0
2026-01-05 13:54:07.404,1.76762124742693e+18,2.074929931640625,-0.0012217304902151,-0.0012217304902151,-0.0006108652451075
2026-01-05 13:54:07.437,1.767621247467047e+18,2.115046875,0.0,-0.0012217304902151,-0.0012217304902151
2026-01-05 13:54:07.470,1.767621247487103e+18,2.135102860995588,0.0,-0.0012217304902151,-0.0012217304902151
2026-01-05 13:54:07.503,1.7676212475071588e+18,2.15515869140625,0.0,-0.0012217304902151,-0.0012217304902151
2026-01-05 13:54:07.536,1.7676212475472758e+18,2.19527587890625,0.0,-0.0006108652451075,-0.0012217304902151
2026-01-05 13:54:07.569,1.7676212475874058e+18,2.23540576171875,-0.0006108652451075,-0.0006108652451075,-0.0006108652451075
2026-01-05 13:54:07.602,1.7676212476275302e+18,2.2755302734375,-0.0006108652451075,-0.0006108652451075,0.0
2026-01-05 13:54:07.635,1.7676212476676541e+18,2.315654052734375,0.0,-0.0012217304902151,0.0
2026-01-05 13:54:07.668,1.7676212476877156e+18,2.335715576171875,0.0,-0.0018325957353226498,0.0
2026-01-05 13:54:07.701,1.767621247707777e+18,2.355777099609375,0.0,-0.0018325957353226498,0.0
2026-01-05 13:54:07.734,1.767621247747896e+18,2.39589599609375,0.0,-0.0018325957353226498,0.0
2026-01-05 13:54:07.767,1.7676212477880205e+18,2.4360205078125,-0.0006108652451075,0.0,0.0
2026-01-05 13:54:07.800,1.7676212478281423e+18,2.476142333984375,-0.0006108652451075,0.0,-0.0006108652451075
2026-01-05 13:54:07.833,1.7676212478482435e+18,2.496243408203125,-0.0006108652451075,0.0003054326225538,0.0006108652451075
2026-01-05 13:54:07.866,1.767621247868269e+18,2.51626904296875,-0.0006108652451075,0.0003054326225538,-0.0006108652451075
2026-01-05 13:54:07.899,1.767621247918444e+18,2.5664442138671877,-0.0012217304902151,0.0003054326225538,-0.0006108652451075
2026-01-05 13:54:07.932,1.7676212479485087e+18,2.5965087890625,-0.0012217304902151,0.00030543262255375,0.0
2026-01-05 13:54:07.965,1.7676212479886203e+18,2.636620361328125,-0.0015271631418727,0.00030543262255375,0.0
2026-01-05 13:54:07.998,1.7676212480187297e+18,2.666729736328125,-0.0015271631418727,0.000152716311276875,0.0
2026-01-05 13:54:08.031,1.7676212480437955e+18,2.6917955322265623,-0.0018325957935303,0.000152716311276875,0.0
2026-01-05 13:54:08.064,1.7676212480688614e+18,2.716861328125,-0.0018325957935303,0.000152716311276875,0.0
2026-01-05 13:54:08.097,1.7676212481089882e+18,2.75698828125,-0.0018325957935303,0.0,0.0
2026-01-05 13:54:08.130,1.7676212481491167e+18,2.79711669921875,-0.0018325957935303,0.0,0.0
2026-01-05 13:54:08.163,1.7676212481792317e+18,2.8272315673828126,-0.0018325957935303,0.0,-0.0006108652451075
2026-01-05 13:54:08.196,1.7676212482093432e+18,2.85734326171875,-0.00091629789676515,-0.0012217304902151,-0.00061086524510755
2026-01-05 13:54:08.229,1.7676212482293635e+18,2.877363525390625,-0.00091629789676515,-0.0012217304902151,-0.0012217304902151
2026-01-05 13:54:08.262,1.7676212482795384e+18,2.9275384521484376,-0.00091629789676515,-0.0006108652451075,-0.0012217304902151
2026-01-05 13:54:08.295,1.767621248309614e+18,2.957614013671875,-0.0006108652451075,-0.0012217304902151,-0.0012217304902151
2026-01-05 13:54:08.328,1.7676212483497362e+18,2.997736083984375,-0.0006108652451075,-0.0012217304902151,-0.0012217304902151
2026-01-05 13:54:08.361,1.7676212483898499e+18,3.037849853515625,-0.0006108652451075,-0.0006108652451075,-0.0012217304902151
2026-01-05 13:54:08.394,1.7676212484099443e+18,3.0579443359375,-0.0006108652451075,-0.0006108652451075,-0.0006108652451075
2026-01-05 13:54:08.427,1.7676212484299694e+18,3.077969482421875,0.0,0.0,-0.0012217304902151
2026-01-05 13:54:08.460,1.7676212484801132e+18,3.1281131591796876,0.0006108652451075,0.0,-0.0012217304902151
2026-01-05 13:54:08.493,1.7676212485101773e+18,3.15817724609375,0.0,0.0006108652451075,-0.00015271629672497468
2026-01-05 13:54:08.526,1.767621248550298e+18,3.198298095703125,-0.00030543262255375,0.0006108652451075501,-0.00015271629672497468
2026-01-05 13:54:08.559,1.7676212485904177e+18,3.238417724609375,0.0,0.0006108652451075,-0.00015271629672497468
2026-01-05 13:54:08.592,1.767621248610475e+18,3.258474853515625,-0.00030543262255375,0.0006108652451075,0.0
2026-01-05 13:54:08.625,1.767621248630532e+18,3.278531982421875,-0.00030543262255375,0.0,0.0006108652451075
2026-01-05 13:54:08.658,1.767621248670647e+18,3.31864697265625,-0.00030543262255375,0.0,0.0006108652451075
2026-01-05 13:54:08.691,1.767621248710784e+18,3.358783935546875,0.0,0.0,0.0
2026-01-05 13:54:08.724,1.767621248750897e+18,3.39889697265625,0.0,0.0,0.0
2026-01-05 13:54:08.757,1.7676212487709998e+18,3.418999755859375,0.0,0.0,0.0
2026-01-05 13:54:08.790,1.7676212488010726e+18,3.449072509765625,0.0006108652451075,0.0,-0.0006108652451075
2026-01-05 13:54:08.823,1.767621248831145e+18,3.47914501953125,0.0006108652451075,0.0,0.0
2026-01-05 13:54:08.856,1.7676212488712586e+18,3.519258544921875,0.0006108652451075,-0.0006108652451075,0.0006108652451075
2026-01-05 13:54:08.889,1.7676212489114376e+18,3.5594375,0.0006108652451075,-0.0006108652451075,0.0006108652451075
2026-01-05 13:54:08.922,1.7676212489515443e+18,3.59954443359375,-0.0006108652451075,-0.0006108652451075,0.0006108652451075
2026-01-05 13:54:08.955,1.7676212489716452e+18,3.619645263671875,-0.0012217304902151,-0.0006108652451075,0.0006108652451075
2026-01-05 13:54:08.988,1.7676212489916652e+18,3.6396650390625,-0.0018325957935303,-0.0006108652451075,0.0006108652451075
2026-01-05 13:54:09.021,1.7676212490317786e+18,3.679778564453125,-0.0018325957935303,-0.0006108652451075,0.0006108652451075
2026-01-05 13:54:09.054,1.767621249071897e+18,3.71989697265625,-0.0018325957935303,-0.0006108652451075,0.0006108652451075
2026-01-05 13:54:09.087,1.7676212491120143e+18,3.760014404296875,0.00030543262255377504,-0.000763581556384425,0.0006108652451075
2026-01-05 13:54:09.120,1.7676212491521777e+18,3.800177734375,0.00030543262255377504,-0.000763581556384425,0.00030543262255375
2026-01-05 13:54:09.153,1.7676212491772544e+18,3.825254455566406,0.00030543262255377504,-0.000763581556384425,0.00030543262255375
2026-01-05 13:54:09.186,1.7676212492023311e+18,3.8503311767578126,-0.0006108652451075,-0.0006108652451075,0.00030543262255375
2026-01-05 13:54:09.219,1.767621249232394e+18,3.88039404296875,-0.0006108652451075,-0.00030543262255375,0.00030543265165760007
2026-01-05 13:54:09.252,1.767621249272512e+18,3.920511962890625,-0.0006108652451075,-0.00030543262255375,0.00030543265165760007
2026-01-05 13:54:09.285,1.767621249302616e+18,3.9506162109375,-0.0006108652451075,0.00030543262255375,0.00030543265165760007
2026-01-05 13:54:09.318,1.7676212493327217e+18,3.9807216796875,-0.0006108652451075,-0.0006108652451075,0.00030543259344995
2026-01-05 13:54:09.351,1.7676212493627884e+18,4.0107882080078125,-0.0006108652451075,0.0,0.00030543259344995
2026-01-05 13:54:09.384,1.767621249392854e+18,4.04085400390625,0.0,-0.0006108652451075,0.0
2026-01-05 13:54:09.417,1.7676212494329705e+18,4.080970458984375,-0.0009162978676613499,-0.0006108652451075,0.00030543259344995
2026-01-05 13:54:09.450,1.7676212494730867e+18,4.121086669921875,-0.0009162978676613498,-0.0006108652451075,0.0006108652451075
2026-01-05 13:54:09.483,1.7676212495132006e+18,4.16120068359375,-0.0009162978676613498,0.0,0.0009162978676613
2026-01-05 13:54:09.516,1.7676212495332526e+18,4.181252685546875,-0.00030543262255375,-0.0003054326225538,0.0006108652451075
2026-01-05 13:54:09.549,1.7676212495533046e+18,4.2013046875,-0.00030543262255375,0.0,0.0009162978676613
2026-01-05 13:54:09.582,1.76762124960346e+18,4.2514599609375,0.0006108652451075,0.0003054326225538,0.0012217304902151
2026-01-05 13:54:09.615,1.7676212496335245e+18,4.2815244140625,0.0006108652451075,0.0,0.0012217304902151
2026-01-05 13:54:09.648,1.767621249673638e+18,4.321637939453125,0.000610867614519663,-0.0003054326225538,0.0012217304902151
2026-01-05 13:54:09.681,1.7676212497137649e+18,4.361764892578125,0.000610867614519663,0.0,0.0012217304902151
2026-01-05 13:54:09.714,1.767621249733826e+18,4.381826094061704,0.000610867614519663,0.0,0.0009162990523673565
2026-01-05 13:54:09.747,1.7676212497538875e+18,4.401887451171875,0.000610867614519663,0.0,0.0006108652451075
2026-01-05 13:54:09.780,1.7676212497940024e+18,4.44200244140625,0.000610867614519663,0.0,0.0006108652451075
2026-01-05 13:54:09.813,1.7676212498341097e+18,4.482109619140625,0.0012217304902151,0.0,-0.0006108652451075
2026-01-05 13:54:09.846,1.767621249874221e+18,4.522220947265625,0.0021380319410985323,0.0006108652451075,-0.0006108652451075
2026-01-05 13:54:09.879,1.767621249894279e+18,4.54227880859375,0.0021380319410985323,0.0006108652451075,-0.0009162978676613498
2026-01-05 13:54:09.912,1.7676212499143368e+18,4.562336669921875,0.0021380319410985323,0.0006108652451075,-0.0009162978676613498
2026-01-05 13:54:09.945,1.7676212499544548e+18,4.602454833984375,0.0,0.0006108652451075,0.0003054326225538
2026-01-05 13:54:09.978,1.767621249994572e+18,4.642572021484375,-0.0006108652451075,0.0006108652451075,0.0006108652451075
2026-01-05 13:54:10.011,1.767621250024681e+18,4.67268115234375,-0.0009163037911916324,0.0006108652451075,0.0006108652451075
2026-01-05 13:54:10.044,1.7676212500748134e+18,4.7228134765625,-0.0009163037911916324,0.0003054338072598065,0.0015271595586506801
2026-01-05 13:54:10.077,1.7676212500948623e+18,4.742862348992338,-0.0012217304902151,0.0003054338072598065,0.0015271595586506801
2026-01-05 13:54:10.110,1.7676212501149115e+18,4.762911376953125,-0.0009163037911916324,0.0006108652451075,0.0018325957935303
2026-01-05 13:54:10.143,1.7676212501550223e+18,4.803022216796875,0.0,0.0006108652451075,0.00213802838698025
2026-01-05 13:54:10.176,1.7676212501951404e+18,4.843140380859375,0.0,0.0009162990523673565,0.00213802838698025
2026-01-05 13:54:10.209,1.7676212502252493e+18,4.873249145507812,-0.0009162931142852305,0.0009162990523673565,0.0019853138527624347
2026-01-05 13:54:10.242,1.7676212502553377e+18,4.903337651847528,-0.0009162931142852305,0.0009162990523673565,0.0019853138527624347
2026-01-05 13:54:10.275,1.7676212502854264e+18,4.933426391601563,-0.0012217304902151,0.0009162990523673565,0.0019853138527624347
2026-01-05 13:54:10.308,1.7676212503154936e+18,4.96349365234375,-0.0012217304902151,0.0006108652451075,0.0015271631418727
2026-01-05 13:54:10.341,1.7676212503556132e+18,5.00361328125,-0.0012217304902151,0.0,0.0009162978676613499
2026-01-05 13:54:10.374,1.7676212503957243e+18,5.043724365234375,-0.0012217304902151,-0.0006108652451075,0.0006108652451075
2026-01-05 13:54:10.407,1.7676212504258345e+18,5.073834594726563,-0.0006108652451075,-0.0006108652451075,0.0006108652451075
2026-01-05 13:54:10.440,1.767621250455951e+18,5.103951171875,-0.0006108652451075,0.0,0.0009162978676613499
2026-01-05 13:54:10.473,1.76762125047597e+18,5.123969970703125,-0.00030543262255375,0.0,0.0009162978676613499
2026-01-05 13:54:10.506,1.7676212505160855e+18,5.16408544921875,-0.00030543265165760007,-0.0006108652451075,-0.0012217304902151
2026-01-05 13:54:10.539,1.767621250556204e+18,5.2042041015625,-0.00030543265165760007,-0.0006108652451075,-0.0012217304902151
2026-01-05 13:54:10.572,1.7676212505863122e+18,5.234312377929688,0.0,-0.0012217304902151,-0.00152715716013488
2026-01-05 13:54:10.605,1.7676212506364247e+18,5.2844248046875,0.0018325957935303,-0.0012217304902151,-0.00152715716013488
2026-01-05 13:54:10.638,1.7676212506564823e+18,5.30448225553252,0.0018325957935303,-0.0012217304902151,-0.0012217304902151
2026-01-05 13:54:10.671,1.7676212506765396e+18,5.32453955078125,0.0018325957935303,-0.0018325933659105367,0.0
2026-01-05 13:54:10.704,1.7676212507166572e+18,5.3646572265625,0.0,-0.0018325933659105367,0.0
2026-01-05 13:54:10.737,1.767621250756772e+18,5.404772216796875,-0.0006108652451075,-0.0016798776324348217,0.0
2026-01-05 13:54:10.770,1.7676212507868774e+18,5.4348775634765625,-0.0006108652451075,-0.0016798776324348217,0.0
2026-01-05 13:54:10.803,1.7676212508119383e+18,5.459938512732885,-0.0006108652451075,-0.0018325957935303,-0.0004581518955957914
2026-01-05 13:54:10.836,1.7676212508369992e+18,5.484999267578125,-0.0007635809785832403,-0.0016798776324348217,-0.0004581518955957914
2026-01-05 13:54:10.869,1.767621250877104e+18,5.525104248046875,-0.0006108652451075,-0.0012217304902151,-0.0006108652451075
2026-01-05 13:54:10.902,1.7676212509172163e+18,5.56521630859375,0.0,0.0,-0.0006108652451075
2026-01-05 13:54:10.935,1.76762125095734e+18,5.60533984375,0.0,0.0,-0.0006108652451075
2026-01-05 13:54:10.968,1.7676212509974625e+18,5.645462646484375,0.0,0.0,0.0
2026-01-05 13:54:11.001,1.7676212510175176e+18,5.665517700195313,0.0,0.0,-0.0006108652451075
2026-01-05 13:54:11.034,1.7676212510375729e+18,5.68557275390625,0.0,-0.0006108652451075,0.0
2026-01-05 13:54:11.067,1.7676212510776886e+18,5.7256884765625,0.0,-0.0006108652451075,0.0
2026-01-05 13:54:11.100,1.7676212511178043e+18,5.76580419921875,0.0,-0.0012217304902151,0.0
2026-01-05 13:54:11.133,1.7676212511579208e+18,5.805920654296875,0.0,-0.0012217304902151,-0.0006108652451075
2026-01-05 13:54:11.166,1.7676212511980334e+18,5.846033447265625,0.0,-0.0012217304902151,-0.0012217304902151
2026-01-05 13:54:11.199,1.7676212512180923e+18,5.86609228515625,0.00091629789676515,-0.0012217304902151,-0.0012217304902151
2026-01-05 13:54:11.232,1.7676212512381512e+18,5.886151123046875,0.00091629789676515,-0.0012217304902151,-0.0012217304902151
2026-01-05 13:54:11.265,1.7676212512782674e+18,5.926267333984375,0.0,-0.0006108652451075,-0.0012217304902151
2026-01-05 13:54:11.298,1.7676212513183762e+18,5.966376220703125,-0.0006108652451075,0.0,-0.00030543262255375
2026-01-05 13:54:11.331,1.7676212513584801e+18,6.006480224609375,-0.0006108652451075,0.0,-0.00030543262255375
2026-01-05 13:54:11.364,1.7676212513785375e+18,6.026537353515625,-0.0006108652451075,-0.0006108652451075,-0.00030543262255375
2026-01-05 13:54:11.397,1.7676212513985946e+18,6.046594482421875,-0.0006108652451075,0.0,-0.0006108652451075
2026-01-05 13:54:11.430,1.7676212514387156e+18,6.086715576171875,0.0,0.0,-0.0012217304902151
2026-01-05 13:54:11.463,1.7676212514788242e+18,6.12682421875,0.0,-0.0006108652451075,-0.0012217304902151
2026-01-05 13:54:11.496,1.7676212515189384e+18,6.1669384765625,0.0,-0.0012217304902151,-0.0012217304902151
2026-01-05 13:54:11.529,1.7676212515590523e+18,6.20705224609375,-0.0006108652451075,-0.0024434609804302,-0.0006108652451075
2026-01-05 13:54:11.562,1.7676212515791089e+18,6.227108808923446,-0.0009162990523673565,-0.0024434609804302,0.0003054290684356304
2026-01-05 13:54:11.595,1.7676212515991654e+18,6.24716552734375,-0.0009162990523673565,-0.0024434609804302,0.0012217304902151
2026-01-05 13:54:11.628,1.7676212516392686e+18,6.2872685546875,-0.0006108652451075,-0.0006108652451075,0.0012217304902151
2026-01-05 13:54:11.661,1.7676212516793818e+18,6.3273818359375,0.0,0.0,0.0012217304902151
2026-01-05 13:54:11.694,1.7676212517094756e+18,6.357475463867187,0.0,0.0,0.0006108652451075
2026-01-05 13:54:11.727,1.76762125175958e+18,6.407579833984375,0.0,0.0,0.0006108652451075
2026-01-05 13:54:11.760,1.767621251779676e+18,6.427676025390625,0.0,0.0,0.0006108652451075
2026-01-05 13:54:11.793,1.7676212517996892e+18,6.447689208984375,0.0,0.0,0.0006108652742114
2026-01-05 13:54:11.826,1.7676212518397993e+18,6.48779931640625,0.0,0.0006108652742114,0.0006108652742114
2026-01-05 13:54:11.859,1.767621251869906e+18,6.517906005859375,0.0,0.000610867614519663,0.001221725751390874
2026-01-05 13:54:11.892,1.7676212519200282e+18,6.568028076171875,0.0024434609804302,0.0006108652742114,0.001221725751390874
2026-01-05 13:54:11.925,1.7676212519400883e+18,6.588088179026903,0.0024434609804302,0.0006108652742114,0.0006108652742114
2026-01-05 13:54:11.958,1.7676212519601485e+18,6.6081484375,0.0024434609804302,0.0,0.0006108652451075
2026-01-05 13:54:11.991,1.7676212520002647e+18,6.6482646484375,0.0,0.0,0.0006108652451075
2026-01-05 13:54:12.024,1.7676212520403776e+18,6.688377685546875,0.0,-0.0006108652451075,0.0006108652451075
2026-01-05 13:54:12.057,1.7676212520804895e+18,6.728489501953125,0.0,-0.0006108652451075,-0.00030542906843560535
2026-01-05 13:54:12.090,1.767621252120622e+18,6.7686220703125,0.0,0.0,-0.00030542906843560535
2026-01-05 13:54:12.123,1.7676212521457078e+18,6.7937077389029845,-4.738824226253879e-09,0.0001527192730420414,-0.00030542906843560535
2026-01-05 13:54:12.156,1.7676212521707932e+18,6.8187932128906255,-0.0006108652451075,0.0001527192730420414,0.0006108652451075
2026-01-05 13:54:12.189,1.7676212522109102e+18,6.8589101562499994,-0.0006108652451075,0.0001527192730420414,0.0006108652451075
2026-01-05 13:54:12.222,1.7676212522409802e+18,6.888980224609375,-0.0006108652451075,0.0,0.0006108652451075
2026-01-05 13:54:12.255,1.7676212522810972e+18,6.92909716796875,-0.0006108652451075,0.0,0.0006108652451075
2026-01-05 13:54:12.288,1.7676212523011497e+18,6.949149536132812,-0.0006108652451075,0.0,0.00030543265165760007
2026-01-05 13:54:12.321,1.767621252321202e+18,6.969201904296875,0.0003054326225538,0.0,0.00030543265165760007
2026-01-05 13:54:12.354,1.767621252371368e+18,7.0193677978515625,-0.0006108652451075,0.0006108652451075,0.0006108652451075
2026-01-05 13:54:12.387,1.7676212524014382e+18,7.049438232421875,-0.0012217304902151,0.0006108652451075,0.0006108652451075
2026-01-05 13:54:12.420,1.76762125244156e+18,7.08956005859375,-0.0012217304902151,2.3694121131269397e-09,0.0003054326225538
2026-01-05 13:54:12.453,1.76762125248169e+18,7.129690185546875,-0.0012217304902151,0.0006108652451075,0.0
2026-01-05 13:54:12.486,1.7676212525017513e+18,7.14975142058626,-0.0012217304902151,0.00030543262255375,0.0
2026-01-05 13:54:12.519,1.7676212525218125e+18,7.1698125,-0.0015271643265788695,0.00030543262255375,0.0
2026-01-05 13:54:12.552,1.7676212525719757e+18,7.219975830078125,-0.0015271643265788695,0.0006108652451075,0.0006108652451075
2026-01-05 13:54:12.585,1.767621252602045e+18,7.250044921875,-0.0012217328887311261,0.0012217304902151,0.0006108652451075
2026-01-05 13:54:12.618,1.7676212526421655e+18,7.29016552734375,-0.0006108652451075,0.0012217304902151,0.0006108652451075
2026-01-05 13:54:12.651,1.76762125268229e+18,7.3302900390625,-0.0006108652451075,0.0012217304902151,0.0
2026-01-05 13:54:12.684,1.767621252702354e+18,7.350353881835938,0.00091629786766135,0.0012217304902151,-0.0006108652451075
2026-01-05 13:54:12.717,1.7676212527224177e+18,7.370417724609375,0.00091629786766135,0.0,-0.0006108652451075
2026-01-05 13:54:12.750,1.7676212527625462e+18,7.410546142578125,0.00091629786766135,-0.0006108652451075,-0.0006108652451075
2026-01-05 13:54:12.783,1.767621252802651e+18,7.45065087890625,0.0012217304902151,-0.0012217304902151,-0.0006108652451075
2026-01-05 13:54:12.816,1.7676212528427635e+18,7.490763427734375,0.0012217304902151,-0.0012217304902151,-0.0006108652451075
2026-01-05 13:54:12.849,1.7676212528628265e+18,7.510826416015625,0.0006108652742113751,-0.0012217304902151,-0.0006108652451075
2026-01-05 13:54:12.882,1.7676212528828895e+18,7.530889404296875,0.0012217304902151,-0.0006108652451075,-0.0006108652451075
2026-01-05 13:54:12.915,1.767621252923011e+18,7.571010986328125,0.0012217304902151,0.0,0.0006108652451075
2026-01-05 13:54:12.948,1.7676212529631299e+18,7.6111298828125,0.0006108652451075,0.0,0.0006108652451075
2026-01-05 13:54:12.981,1.767621253003252e+18,7.651251953125,0.0006108652451075,0.0,0.0006108652451075
2026-01-05 13:54:13.014,1.767621253043368e+18,7.691367919921875,-0.0003054266990232665,0.0,-0.00015272401186646844
2026-01-05 13:54:13.047,1.767621253063429e+18,7.711429199218751,-0.0003054266990232665,0.0,-0.00015272401186646844
2026-01-05 13:54:13.080,1.7676212530834906e+18,7.731490478515625,-0.0003054266990232665,0.0,-0.00015272401186646844
2026-01-05 13:54:13.113,1.767621253123611e+18,7.77161083984375,0.0,-0.0006108652451075,0.0
2026-01-05 13:54:13.146,1.7676212531637394e+18,7.811739501953125,0.0,-0.0006108652451075,0.0
2026-01-05 13:54:13.179,1.767621253203861e+18,7.851861083984375,0.0,-0.0006108652451075,0.0
2026-01-05 13:54:13.212,1.7676212532439795e+18,7.8919794921875,0.0,-0.0006108652451075,0.0
2026-01-05 13:54:13.245,1.7676212532640364e+18,7.912036299156874,0.0,2.3694121130185195e-09,0.0
2026-01-05 13:54:13.278,1.7676212532840932e+18,7.93209326171875,0.00152715716013488,0.0006108652451075,-0.0003054314378476935
2026-01-05 13:54:13.311,1.7676212533242132e+18,7.972213134765625,0.00152715716013488,2.3694121130185195e-09,-0.0003054314378476935
2026-01-05 13:54:13.344,1.767621253364332e+18,8.01233203125,0.00015271098009962051,-0.0006108652451075,0.0
2026-01-05 13:54:13.377,1.767621253404455e+18,8.052454833984376,0.00015271098009962051,0.0,0.0
2026-01-05 13:54:13.410,1.7676212534295455e+18,8.077545312835417,0.00015271098009962051,0.0,0.0
2026-01-05 13:54:13.443,1.767621253454636e+18,8.102635986328124,-0.0006108652451075,-0.0009163014508834326,0.0
2026-01-05 13:54:13.476,1.7676212534847094e+18,8.13270947265625,0.00015271098009962051,0.0,0.0
2026-01-05 13:54:13.509,1.76762125352482e+18,8.172820068359375,0.0012217304902151,0.0,-0.0006108652451075
2026-01-05 13:54:13.542,1.7676212535649357e+18,8.212935791015624,0.00061086524510755,-0.0012217304902151,-0.0006108652451075
2026-01-05 13:54:13.575,1.7676212536050578e+18,8.253057861328125,0.00061086524510755,-0.0012217304902151,0.0003054326225538
2026-01-05 13:54:13.608,1.7676212536251197e+18,8.273119628906251,0.00061086524510755,0.0,0.0012217304902151
2026-01-05 13:54:13.641,1.7676212536451814e+18,8.293181396484375,0.00061086524510755,0.0,0.0012217304902151
2026-01-05 13:54:13.674,1.7676212536853071e+18,8.33330712890625,0.00061086524510755,0.0,0.0012217304902151
2026-01-05 13:54:13.707,1.767621253725424e+18,8.373424072265625,0.0,0.0,0.0012217304902151
2026-01-05 13:54:13.740,1.7676212537555267e+18,8.403526855468751,0.0,0.0,0.0009162990523673565
2026-01-05 13:54:13.773,1.767621253805659e+18,8.453658935546875,0.0,0.0,0.0009162990523673565
2026-01-05 13:54:13.806,1.7676212538257196e+18,8.473719682303116,-0.0006108628756954368,0.0,0.0009162990523673565
2026-01-05 13:54:13.839,1.7676212538457802e+18,8.4937802734375,-0.0006108652451075,0.0,0.0012217304902151
2026-01-05 13:54:13.872,1.7676212538859108e+18,8.533910888671874,-0.0006108628756954368,0.0,0.0012217304902151
2026-01-05 13:54:13.905,1.7676212539260332e+18,8.574033203125,-0.0006108652451075,0.00030543143784769343,0.0012217304902151
2026-01-05 13:54:13.938,1.767621253966152e+18,8.61415185546875,-0.0012217304902151,0.00030543143784769343,0.0012217304902151
2026-01-05 13:54:13.971,1.7676212539862095e+18,8.634209428384555,-0.0012217304902151,0.00030543143784769343,0.0012217304902151
2026-01-05 13:54:14.004,1.767621254006267e+18,8.654266845703125,-0.0012217304902151,0.0,0.0009162966829552434
2026-01-05 13:54:14.037,1.7676212540463846e+18,8.694384521484375,-0.0012217304902151,-0.0006108652451075,0.0006108652451075
2026-01-05 13:54:14.070,1.7676212540865093e+18,8.73450927734375,-0.0012217304902151,-0.0012217304902151,0.0
2026-01-05 13:54:14.103,1.7676212541266084e+18,8.7746083984375,-0.0006108652742114,-0.0012217304902151,-0.00030543262255375
2026-01-05 13:54:14.136,1.7676212541667267e+18,8.8147265625,0.0006108652451075,-0.0012217304611113,-0.00030543262255375
2026-01-05 13:54:14.169,1.7676212541867855e+18,8.834785522460937,0.0006108652451075,-0.0012217304902151,-0.0006108652451075
2026-01-05 13:54:14.202,1.7676212542068444e+18,8.854844482421875,0.0006108652451075,-0.0012217304902151,-0.00030543262255375
2026-01-05 13:54:14.235,1.7676212542469652e+18,8.89496533203125,0.0006108652451075,-0.0012217304611113,-0.00030543262255375
2026-01-05 13:54:14.268,1.7676212542870897e+18,8.935089599609375,0.0006108652451075,-0.0006108652451075,-0.00030542430050744087
2026-01-05 13:54:14.301,1.767621254327203e+18,8.975203125,0.0006108652451075,-0.0006108652451075,-0.00030542430050744087
2026-01-05 13:54:14.334,1.767621254347256e+18,8.995256181296725,0.00030543617667196966,-0.0006108652451075,0.0
2026-01-05 13:54:14.367,1.767621254367309e+18,9.01530908203125,-0.0006108652451075,2.3694121131269397e-09,-0.00030542430050744087
2026-01-05 13:54:14.400,1.767621254407424e+18,9.055424072265623,-0.0006108652451075,2.3694121131269397e-09,0.0
2026-01-05 13:54:14.433,1.7676212544475466e+18,9.095546630859374,-0.0006108652451075,-0.0006108652451075,0.0
2026-01-05 13:54:14.466,1.7676212544876572e+18,9.1356572265625,-0.0006108652451075,-0.0012217304902151,-0.00091629789676515
2026-01-05 13:54:14.499,1.7676212545277783e+18,9.1757783203125,-0.0006108652451075,-0.0018325957935303,-0.00091629789676515
2026-01-05 13:54:14.532,1.7676212545478395e+18,9.195839599609375,0.0,-0.0018325957935303,0.0
2026-01-05 13:54:14.565,1.767621254567901e+18,9.21590087890625,0.0,-0.0018325957935303,0.0
2026-01-05 13:54:14.598,1.7676212546080335e+18,9.256033447265626,0.0,-0.0012217304902151,0.0006108652451075
2026-01-05 13:54:14.631,1.767621254648159e+18,9.296158935546876,-0.0006108652451075,-0.0006108652451075,0.0018325957935303
2026-01-05 13:54:14.664,1.7676212546882826e+18,9.33628271484375,-0.0006108652451075,0.0,0.0018325957935303
2026-01-05 13:54:14.697,1.767621254728402e+18,9.37640185546875,-0.0010690123873272465,-0.0006108652451075,0.0013744486076549978
2026-01-05 13:54:14.730,1.767621254753487e+18,9.401486963246874,-0.0010690123873272465,0.0006108652451075,0.0018325957935303
2026-01-05 13:54:14.763,1.7676212547785723e+18,9.426572265625,-0.0010690123873272465,0.0006108723387920458,0.0018325957935303
2026-01-05 13:54:14.796,1.7676212548086472e+18,9.456647216796876,-0.0010690123873272465,0.0006108652451075,0.0013744486076549978
2026-01-05 13:54:14.829,1.7676212548487736e+18,9.496773681640626,0.0,0.0006108652451075,0.0009162978676613
2026-01-05 13:54:14.862,1.7676212548888896e+18,9.5368896484375,0.0,0.0006108652451075,0.0006108652451075
2026-01-05 13:54:14.895,1.7676212549089495e+18,9.55694970703125,0.0,-0.0003054326225538,0.0006108652451075
2026-01-05 13:54:14.928,1.7676212549290097e+18,9.577009765625,0.0,-0.0003054326225538,0.0006108652451075
2026-01-05 13:54:14.961,1.7676212549691233e+18,9.617123291015623,-0.0006108652451075,-0.0006108652451075,0.00091629789676515
2026-01-05 13:54:14.994,1.7676212550092442e+18,9.657244140625,-0.0006108652451075,-0.0006108652451075,0.00091629789676515
2026-01-05 13:54:15.027,1.7676212550393603e+18,9.687360229492189,-0.0006108652451075,-0.0003054290684356304,0.00091629789676515
2026-01-05 13:54:15.060,1.7676212550894963e+18,9.737496337890626,-0.0006108652451075,-0.0003054290684356304,0.0006108652451075
2026-01-05 13:54:15.093,1.7676212551095593e+18,9.757559248351951,-0.0003054338072598065,-0.0006108652451075,-0.000610860535387061
2026-01-05 13:54:15.126,1.7676212551296223e+18,9.777622314453126,-0.0003054338072598065,-0.0006108652451075,-0.0006108652451075
2026-01-05 13:54:15.159,1.7676212551697577e+18,9.8177578125,0.0,-0.0006108652451075,-0.0006108652451075
2026-01-05 13:54:15.192,1.7676212552098808e+18,9.857880859375,0.0,-0.0006108652451075,-0.0006108652451075
2026-01-05 13:54:15.225,1.767621255250012e+18,9.898011962890624,-0.0012217304902151,-0.00030543380725980656,-4.738824226253879e-09
2026-01-05 13:54:15.258,1.7676212552901496e+18,9.938149658203123,-0.0015271643265788695,-0.00030543380725980656,-4.738824226253879e-09
2026-01-05 13:54:15.291,1.7676212553102167e+18,9.958216752640237,-0.0012217304902151,0.0,0.0012217304902151
2026-01-05 13:54:15.324,1.7676212553302838e+18,9.97828369140625,-0.0012217304902151,0.0,0.0012217304902151
2026-01-05 13:54:15.357,1.7676212553704243e+18,10.01842431640625,-0.00061086524510755,0.0,0.0012217304902151
2026-01-05 13:54:15.390,1.767621255400549e+18,10.048549072265626,-0.0006108652451075,0.0,0.0012217304902151
2026-01-05 13:54:15.423,1.7676212554507116e+18,10.098711669921874,-0.0006108652451075,0.0,0.0012217304902151
2026-01-05 13:54:15.456,1.7676212554708124e+18,10.1188125,0.0,0.0,0.0
2026-01-05 13:54:15.489,1.7676212554909082e+18,10.138908203125,0.0,-0.0012217304902151,-0.0006108652451075
2026-01-05 13:54:15.522,1.767621255531043e+18,10.17904296875,-0.00061086524510755,-0.0012217304902151,-0.0012217304902151
2026-01-05 13:54:15.555,1.767621255571251e+18,10.2192509765625,-0.00061086524510755,-0.0012217304902151,-0.0012217304902151
2026-01-05 13:54:15.588,1.767621255611436e+18,10.25943603515625,0.0,-0.0012217304902151,-0.0012217304902151
2026-01-05 13:54:15.621,1.7676212556515628e+18,10.299562744140625,0.0,-0.0018325957935303,-0.0012217304902151
2026-01-05 13:54:15.654,1.7676212556716214e+18,10.319621293622719,0.0,-0.0018325957935303,-0.0012217304902151
2026-01-05 13:54:15.687,1.7676212556916797e+18,10.3396796875,0.0,-0.0018325957935303,-0.0012217304902151
2026-01-05 13:54:15.720,1.7676212557418493e+18,10.389849365234376,0.0,-0.0006108652451075,-0.0012217304902151
2026-01-05 13:54:15.753,1.76762125577192e+18,10.419919921875,-0.0012217281499066741,-0.0006108652451075,-0.0006108652451075
2026-01-05 13:54:15.786,1.7676212558120425e+18,10.46004248046875,-0.0012217281499066741,-0.0006108652451075,0.0
2026-01-05 13:54:15.819,1.7676212558321034e+18,10.480103349295778,-0.0012217281499066741,-0.0006108652451075,0.00030543617667196966
2026-01-05 13:54:15.852,1.767621255852164e+18,10.5001640625,-0.0012217281499066741,0.0,0.0012217304902151
2026-01-05 13:54:15.885,1.7676212558922819e+18,10.54028173828125,-0.0006108652451075,-0.0009163014508834325,0.0012217304902151
2026-01-05 13:54:15.918,1.7676212559323917e+18,10.5803916015625,-0.0006108652451075,-0.00061086524510755,0.0012217304902151
2026-01-05 13:54:15.951,1.7676212559725107e+18,10.6205107421875,-0.0006108652451075,-0.00061086524510755,0.0006108652451075
2026-01-05 13:54:15.984,1.7676212560026222e+18,10.650622192382812,0.0006108652742114,-0.001221730519318925,-0.0003054325934499499
2026-01-05 13:54:16.017,1.7676212560276892e+18,10.675689147949218,0.0006108652742114,-0.001221730519318925,-0.0003054325934499499
2026-01-05 13:54:16.050,1.7676212560527562e+18,10.700756103515625,-0.0006108652451075,-0.00061086524510755,-0.0003054325934499499
2026-01-05 13:54:16.083,1.7676212560928835e+18,10.740883544921877,-0.0006108652451075,-0.0006108652451075,0.0
2026-01-05 13:54:16.116,1.7676212561330066e+18,10.781006591796874,-0.0006108652451075,-0.0006108652451075,0.0
2026-01-05 13:54:16.149,1.7676212561731249e+18,10.821124755859374,-0.0006108652451075,-0.0006108652451075,0.0
2026-01-05 13:54:16.182,1.7676212562132424e+18,10.861242431640624,0.0006108652451075,-0.0006108652451075,-0.0006108652451075
2026-01-05 13:54:16.215,1.7676212562333038e+18,10.881303833007813,0.0006108652451075,-0.0012217304902151,-0.0006108652451075
2026-01-05 13:54:16.248,1.7676212562533652e+18,10.901365234375,0.0006108652451075,-0.0012217304902151,-0.0006108652451075
2026-01-05 13:54:16.281,1.7676212562934856e+18,10.941485595703124,0.0006108652451075,-0.0012217304902151,-0.0006108652451075
2026-01-05 13:54:16.314,1.767621256333608e+18,10.98160791015625,0.0,-0.0006108652451075,-0.0006108652451075
2026-01-05 13:54:16.347,1.7676212563737275e+18,11.0217275390625,0.0,-0.0006108652451075,-0.0006108652451075
2026-01-05 13:54:16.380,1.767621256393783e+18,11.041783081054687,-0.0003054326225538,-0.0006108652451075,0.0
2026-01-05 13:54:16.413,1.7676212564138386e+18,11.061838623046874,-0.0012217304902151,-0.0012217304902151,0.0
2026-01-05 13:54:16.446,1.7676212564539607e+18,11.101960693359375,-0.0003054326225538,0.0,0.0006108652451075
2026-01-05 13:54:16.479,1.7676212564940874e+18,11.14208740234375,-0.0012217304902151,0.0006108652451075,0.0006108652451075
2026-01-05 13:54:16.512,1.7676212565342003e+18,11.182200439453124,-0.0012217304902151,2.3694121130185195e-09,0.0
2026-01-05 13:54:16.545,1.7676212565743183e+18,11.222318359375,0.0,2.3694121130185195e-09,0.0
2026-01-05 13:54:16.578,1.7676212565943793e+18,11.242379194649063,0.0,2.3694121130185195e-09,0.0
2026-01-05 13:54:16.611,1.7676212566144402e+18,11.262440185546875,-0.0012217304902151,0.0,-0.0006108652451075
2026-01-05 13:54:16.644,1.7676212566545472e+18,11.302547119140623,0.0,0.0,-0.0006108652451075
2026-01-05 13:54:16.677,1.7676212566946583e+18,11.342658203125,-0.0012217304902151,0.0,0.0
2026-01-05 13:54:16.710,1.7676212567347727e+18,11.382772705078125,-0.0012217304902151,0.0,0.0
2026-01-05 13:54:16.743,1.767621256774897e+18,11.42289697265625,-0.0012217304902151,0.0012217304902151,0.0
2026-01-05 13:54:16.776,1.7676212567950062e+18,11.443006103515623,-0.0006108652451075,0.0012217304902151,0.0
2026-01-05 13:54:16.809,1.7676212568150267e+18,11.463026611328123,-0.0006108652451075,0.0006108652451075,0.0
2026-01-05 13:54:16.842,1.7676212568551468e+18,11.503146728515626,-0.0006108652451075,0.0006108652451075,0.0
2026-01-05 13:54:16.875,1.767621256895259e+18,11.5432587890625,-0.00030543617667196956,0.0006108652451075,0.0
2026-01-05 13:54:16.908,1.7676212569353728e+18,11.583372802734376,-0.00030543617667196956,-0.0003054290684356304,-0.0006108652451075
2026-01-05 13:54:16.941,1.767621256955436e+18,11.603435957335378,-0.00030543617667196956,-0.0003054290684356304,-0.0006108652451075
2026-01-05 13:54:16.974,1.7676212569754993e+18,11.623499267578126,-0.00030543617667196956,-0.0006108652451075,0.0
2026-01-05 13:54:17.007,1.7676212570156247e+18,11.663624755859376,0.0006108652451075,-0.0012217304902151,0.0
2026-01-05 13:54:17.040,1.7676212570557532e+18,11.703753173828124,0.0006108652451075,-0.0012217304902151,0.0
2026-01-05 13:54:17.073,1.7676212570958792e+18,11.743879150390624,-0.00030542430050744087,-0.0006108652451075,0.0
2026-01-05 13:54:17.106,1.76762125713599e+18,11.783989990234376,0.0012217304902151,0.0,0.0006108652451075
2026-01-05 13:54:17.139,1.76762125715605e+18,11.8040500045659,0.00030543262255375,0.0,0.0006108676145196631
2026-01-05 13:54:17.172,1.7676212571761098e+18,11.82410986328125,-0.00030542430050744087,0.0,0.0012217304902151
2026-01-05 13:54:17.205,1.767621257226287e+18,11.874287231445312,-0.00030542430050744087,0.0,0.0012217304902151
2026-01-05 13:54:17.238,1.7676212572563584e+18,11.9043583984375,-0.00030543262255375,0.0,0.0012217304902151
2026-01-05 13:54:17.271,1.7676212572964795e+18,11.9444794921875,-0.00030543262255375,0.0,0.0013744468305958001
2026-01-05 13:54:17.304,1.767621257326587e+18,11.974587036132812,-0.00030543262255375,0.0,0.0012217304902151
2026-01-05 13:54:17.337,1.7676212573566735e+18,12.004673583984374,0.00030543262255377493,0.0001527163112769,0.00061086524510755
2026-01-05 13:54:17.370,1.7676212573867602e+18,12.034760131835938,0.00030543262255377493,0.0001527163112769,0.00061086524510755
2026-01-05 13:54:17.403,1.7676212574168328e+18,12.064832763671877,0.00030543262255377493,0.0001527163112769,0.0
2026-01-05 13:54:17.436,1.7676212574569536e+18,12.10495361328125,0.00030543617667196966,0.0,0.0
2026-01-05 13:54:17.469,1.7676212574970816e+18,12.14508154296875,0.00030543617667196966,0.0,0.0
2026-01-05 13:54:17.502,1.767621257517144e+18,12.165144120786781,0.0,0.0,0.0
2026-01-05 13:54:17.535,1.7676212575372065e+18,12.18520654296875,0.0,0.0,0.0
2026-01-05 13:54:17.568,1.7676212575773253e+18,12.2253251953125,0.00030543617667196966,-0.00030543617667196966,0.00030543380725980656
2026-01-05 13:54:17.601,1.7676212576174725e+18,12.265472412109377,0.0012217304902151,0.0,-0.0006108652451075
2026-01-05 13:54:17.634,1.7676212576575862e+18,12.305586181640624,0.0012217304902151,0.0,-0.0006108652451075
2026-01-05 13:54:17.667,1.7676212576977108e+18,12.3457109375,0.0018325957935303,-0.0006108652742114,0.0003054326225538
2026-01-05 13:54:17.700,1.7676212577177728e+18,12.365772827148437,0.0018325957935303,-0.0006108652742114,0.0003054326225538
2026-01-05 13:54:17.733,1.7676212577378348e+18,12.385834716796875,0.0018325957935303,-0.0006108652742114,-0.0006108652451075
2026-01-05 13:54:17.766,1.7676212577779492e+18,12.42594921875,0.0,-0.0006108652742114,-0.0006108652451075
2026-01-05 13:54:17.799,1.7676212578180626e+18,12.4660625,-0.0021380283433245,-0.0006108652451075,-0.0006108652451075
2026-01-05 13:54:17.832,1.7676212578581663e+18,12.506166259765624,-0.0021380283433245,0.0,-0.0006108652451075
2026-01-05 13:54:17.865,1.7676212578832425e+18,12.531242614746095,-0.0018325957935303,0.0,0.0003054326225538
2026-01-05 13:54:17.898,1.767621257908319e+18,12.556318969726563,-0.0018325957935303,0.0,0.0006108652451075
2026-01-05 13:54:17.931,1.7676212579383826e+18,12.586382568359374,-0.0012217305193189,0.0,0.0006108652451075
2026-01-05 13:54:17.964,1.7676212579784998e+18,12.626499755859374,-0.0012217304902151,0.0,0.0006108652451075
2026-01-05 13:54:17.997,1.7676212580186235e+18,12.66662353515625,-0.0012217304902151,2.4936649967166602e-17,0.0006108652451075
2026-01-05 13:54:18.030,1.767621258058733e+18,12.706733154296876,0.0,0.0006108652451075,0.0003054326225538
2026-01-05 13:54:18.063,1.767621258083812e+18,12.731812072753907,0.0,2.4936649967166602e-17,0.0003054326225538
2026-01-05 13:54:18.096,1.7676212581088911e+18,12.756890991210938,0.0,2.4936649967166602e-17,0.0001527163112769
2026-01-05 13:54:18.129,1.767621258138928e+18,12.78692822265625,0.0006108652451075,2.4936649967166602e-17,0.0001527163112769
2026-01-05 13:54:18.162,1.7676212581790418e+18,12.827041748046875,0.0006108652451075,0.0,-0.0012217304902151
2026-01-05 13:54:18.195,1.7676212582191555e+18,12.867155517578125,0.0006108652451075,0.0,-0.0012217304902151
2026-01-05 13:54:18.228,1.7676212582492585e+18,12.89725830078125,-0.00061086524510755,-0.0012217304902151,-0.0018325957935303
2026-01-05 13:54:18.261,1.7676212582793615e+18,12.927361572265625,0.0006108652451075,-0.0012217304902151,-0.0018325957935303
2026-01-05 13:54:18.294,1.767621258299378e+18,12.9473779296875,-0.00061086524510755,0.0,-0.0006108652451075
2026-01-05 13:54:18.327,1.7676212583394883e+18,12.98748828125,-0.0012217304902151,0.0006108652451075,0.0
2026-01-05 13:54:18.360,1.767621258379596e+18,13.027595947265626,-0.0012217328887311261,0.0003054338072598065,0.0
2026-01-05 13:54:18.393,1.7676212584197166e+18,13.067716552734376,-0.0012217328887311261,0.0003054338072598065,0.0012217304902151
2026-01-05 13:54:18.426,1.7676212584397745e+18,13.087774458332301,-0.0012217328887311261,0.0003054338072598065,0.0012217304902151
2026-01-05 13:54:18.459,1.7676212584598326e+18,13.10783251953125,-0.0006108652451075,0.0,0.0012217304902151
2026-01-05 13:54:18.492,1.7676212584999447e+18,13.14794482421875,-0.0006108652451075,0.0,0.0006108652451075
2026-01-05 13:54:18.525,1.7676212585400594e+18,13.188059326171874,-0.0006108652451075,0.0,0.0
2026-01-05 13:54:18.558,1.7676212585801626e+18,13.22816259765625,-0.0006108652451075,0.0,0.0
2026-01-05 13:54:18.591,1.7676212586102753e+18,13.258275268554687,-0.0009162978676613,0.0,0.0006108652451075
2026-01-05 13:54:18.624,1.7676212586403622e+18,13.288362121582031,-0.0012217304902151,0.0,0.0006108652451075
2026-01-05 13:54:18.657,1.7676212586704492e+18,13.318448974609375,-0.0009162978676613,0.0,0.00091629789676515
2026-01-05 13:54:18.690,1.767621258710554e+18,13.358553955078126,-0.0009162978676613,0.0,0.0018325957935303
2026-01-05 13:54:18.723,1.7676212587406134e+18,13.38861328125,0.0006108652451075,-0.0006108652451075,0.0018325957935303
2026-01-05 13:54:18.756,1.7676212587807263e+18,13.428726318359375,0.0006108652451075,-0.0006108652451075,0.0018325957935303
2026-01-05 13:54:18.789,1.7676212588208317e+18,13.468831787109377,0.0006108652451075,-0.0003054290684356303,0.0021380318828906567
2026-01-05 13:54:18.822,1.7676212588408888e+18,13.488888871742038,0.0006108652451075,-0.0003054290684356303,0.0021380318828906567
2026-01-05 13:54:18.855,1.767621258860946e+18,13.50894580078125,-0.00030543857518799565,-0.0003054290684356303,0.0012217304902151
2026-01-05 13:54:18.888,1.767621258901059e+18,13.54905908203125,-0.00030543857518799565,0.0,0.00091629789676515
2026-01-05 13:54:18.921,1.7676212589311703e+18,13.57917041015625,0.0003054290684356303,0.00030543262255375,0.00091629789676515
2026-01-05 13:54:18.954,1.767621258981299e+18,13.629298828125,0.0003054290684356303,0.00030543262255375,0.00091629789676515
2026-01-05 13:54:18.987,1.7676212590013535e+18,13.649353471341941,-0.0006108652451075,0.00030543380725980656,0.0012217304902151
2026-01-05 13:54:19.020,1.767621259021408e+18,13.669407958984374,-0.0006108652451075,0.00030543380725980656,0.0012217304902151
2026-01-05 13:54:19.053,1.7676212590615114e+18,13.709511474609377,-0.0006108652451075,0.00030543380725980656,0.0012217304902151
2026-01-05 13:54:19.086,1.767621259101627e+18,13.749626953125,-0.0006108652451075,0.0006108652451075,0.0012217304902151
2026-01-05 13:54:19.119,1.767621259141745e+18,13.789744873046876,0.0012217304902151,-0.0006108652451075,-0.00030543857518799565
2026-01-05 13:54:19.152,1.7676212591818606e+18,13.829860595703124,0.0012217304902151,-0.0006108652451075,-0.0012217304902151
2026-01-05 13:54:19.185,1.7676212592019628e+18,13.849962646484377,0.0012217304902151,0.0,-0.0012217304902151
2026-01-05 13:54:19.218,1.7676212592219786e+18,13.869978515625,0.0012217304902151,0.0,0.0006108652451075
2026-01-05 13:54:19.251,1.7676212592620913e+18,13.91009130859375,0.00030543265165760007,0.0,0.0006108652451075
2026-01-05 13:54:19.284,1.7676212593021983e+18,13.9501982421875,0.0,0.0,0.0006108652742114
2026-01-05 13:54:19.317,1.767621259332307e+18,13.980307006835938,-0.00061086524510755,0.00015271631127687516,0.00091629788221325
2026-01-05 13:54:19.350,1.7676212593724303e+18,14.020430419921874,-0.00061086524510755,0.0,0.0012217304902151
2026-01-05 13:54:19.383,1.7676212593974948e+18,14.045494750976562,-0.0006108652451075,0.0,0.00091629788221325
2026-01-05 13:54:19.416,1.767621259422559e+18,14.07055908203125,-0.0006108652451075,0.0,0.0006108652742114
2026-01-05 13:54:19.449,1.7676212594626775e+18,14.110677490234377,-0.0006108652451075,-0.0006108652451075,0.0006108652451075
2026-01-05 13:54:19.482,1.7676212595028006e+18,14.150800537109374,-0.00030543265165760007,-0.0009162978676613,0.0
2026-01-05 13:54:19.515,1.767621259542914e+18,14.1909140625,-0.00030543265165760007,-0.0006108652451075,0.0
2026-01-05 13:54:19.548,1.7676212595629734e+18,14.210973388671874,-0.00030543265165760007,-0.0009162978676613,0.0006108652451075
2026-01-05 13:54:19.581,1.7676212595830328e+18,14.23103271484375,-0.00030543265165760007,-0.0012217304902151,-0.00030543265165760007
2026-01-05 13:54:19.614,1.7676212596231526e+18,14.271152587890626,-0.00030543265165760007,-0.0009162978676613,-0.00030543265165760007
2026-01-05 13:54:19.647,1.767621259663276e+18,14.311276123046875,0.0006108652451075,-0.0006108652451075,0.0
2026-01-05 13:54:19.680,1.7676212597033923e+18,14.351392333984377,0.0006108652451075,-0.0003054314378476935,0.0
2026-01-05 13:54:19.713,1.7676212597435016e+18,14.39150146484375,0.0006108652451075,-0.0003054314378476935,0.0
2026-01-05 13:54:19.746,1.7676212597635773e+18,14.411577192638171,0.0003054338072598065,-0.0003054314378476935,0.0
2026-01-05 13:54:19.779,1.767621259783653e+18,14.431653076171877,0.0003054338072598065,-0.0006108652451075,0.0012217304902151
2026-01-05 13:54:19.812,1.7676212598237458e+18,14.471745849609375,0.0,-0.0006108652451075,0.0012217304902151
2026-01-05 13:54:19.845,1.7676212598638615e+18,14.511861572265625,-0.0006108652451075,-0.0012217304902151,-0.0006108652451075
2026-01-05 13:54:19.878,1.7676212599039754e+18,14.551975341796876,-0.0012217304902151,-0.001221730504767,-0.0006108652451075
2026-01-05 13:54:19.911,1.7676212599290537e+18,14.5770537109375,-0.0012217304902151,-0.0012217304902151,-0.00030543265165760007
2026-01-05 13:54:19.944,1.767621259954132e+18,14.602132080078125,-0.0012217304902151,-0.0012217304902151,-0.0006108652451075
2026-01-05 13:54:19.977,1.7676212599841964e+18,14.6321962890625,-0.0013744468160439,-0.0006108652451075,-0.00030543265165760007
2026-01-05 13:54:20.010,1.7676212600243008e+18,14.67230078125,-0.0006108652451075,-0.0006108652451075,-0.00030543265165760007
2026-01-05 13:54:20.043,1.767621260064407e+18,14.712406982421877,-0.0006108652451075,-0.0006108652451075,-0.0006108652451075
2026-01-05 13:54:20.076,1.7676212601045166e+18,14.7525166015625,-0.0006108652451075,-0.0006108652451075,-0.0006108652451075
2026-01-05 13:54:20.109,1.7676212601246124e+18,14.7726123046875,-0.0006108652451075,0.0,0.0
2026-01-05 13:54:20.142,1.7676212601446449e+18,14.792644775390626,-0.0006108652451075,-0.0012217304902151,0.0
2026-01-05 13:54:20.175,1.7676212601847565e+18,14.832756591796874,-0.0012217304902151,-0.0006108652451075,0.0
2026-01-05 13:54:20.208,1.7676212602248594e+18,14.872859375,-0.0012217304902151,-0.0006108652451075,0.0
2026-01-05 13:54:20.241,1.767621260264962e+18,14.912962158203126,-0.0012217304902151,-0.0006108652451075,0.0
2026-01-05 13:54:20.274,1.7676212603050788e+18,14.953078857421875,-0.0012217304902151,-0.000916299066919313,-0.0006108652451075
2026-01-05 13:54:20.307,1.767621260330163e+18,14.978163061162928,-0.0010690088477609454,-0.0006108652451075,-0.0006108652451075
2026-01-05 13:54:20.340,1.767621260355247e+18,15.0032470703125,-0.0006108652451075,-0.0006108652451075,-0.0010690159559972599
2026-01-05 13:54:20.373,1.767621260385314e+18,15.03331396484375,0.0003054326225538,-0.000916299066919313,-0.0012217304902151
2026-01-05 13:54:20.406,1.7676212604254295e+18,15.073429443359377,0.0006108652451075,-0.00091629789676515,-0.0012217304902151
2026-01-05 13:54:20.439,1.7676212604655488e+18,15.113548828125,0.0012217304902151,0.0,-0.0012217304902151
2026-01-05 13:54:20.472,1.7676212604856018e+18,15.133601806640625,0.0012217304902151,0.0,-0.0012217304902151
2026-01-05 13:54:20.505,1.7676212605056548e+18,15.15365478515625,0.0006108652451075,-0.0006108652451075,0.0
2026-01-05 13:54:20.538,1.7676212605457661e+18,15.19376611328125,0.0006108652451075,0.0,0.0
2026-01-05 13:54:20.571,1.767621260585883e+18,15.2338828125,-0.0006108652451075,0.0,0.0
2026-01-05 13:54:20.604,1.7676212606260058e+18,15.274005859375,-0.0018325933659105367,0.0,0.0
2026-01-05 13:54:20.637,1.7676212606661207e+18,15.31412060546875,-0.0012217304902151,0.0,-0.0006108652451075
2026-01-05 13:54:20.670,1.7676212606861773e+18,15.334177323889055,-0.0012217304902151,0.0,-0.0009162990523673565
2026-01-05 13:54:20.703,1.7676212607062339e+18,15.35423388671875,-0.0018325933659105367,0.0,-0.0009162990523673565
2026-01-05 13:54:20.736,1.7676212607463342e+18,15.394334228515625,-0.0012217304902151,2.3694121131269397e-09,-0.0009162990523673565
2026-01-05 13:54:20.769,1.7676212607864428e+18,15.43444287109375,0.0,0.0006108652451075,0.0
2026-01-05 13:54:20.802,1.7676212608165473e+18,15.464547241210937,0.0001527163112769,0.0,0.00030543262255375
2026-01-05 13:54:20.835,1.767621260866657e+18,15.514656982421876,0.0001527163112769,0.0,0.0012217304902151
2026-01-05 13:54:20.868,1.767621260891733e+18,15.539732971191407,0.0001527163112769,0.0,0.001221730504767
2026-01-05 13:54:20.901,1.767621260916809e+18,15.564808959960938,0.0,0.0,0.001221730504767
2026-01-05 13:54:20.934,1.7676212609468713e+18,15.594871337890623,-0.0006108652451075,0.0,0.0012217305193189
2026-01-05 13:54:20.967,1.7676212609869747e+18,15.634974609375,-0.0012217304902151,0.0,0.0012217305193189
2026-01-05 13:54:21.000,1.7676212610170767e+18,15.665076904296875,-0.0012217304902151,0.0,0.0006108652451075
2026-01-05 13:54:21.033,1.7676212610421427e+18,15.690142700195313,-0.0012217304902151,0.0,0.0006108652451075
2026-01-05 13:54:21.066,1.7676212610672084e+18,15.71520849609375,-0.0012217304902151,-0.00030543262255377493,0.000458148962934475
2026-01-05 13:54:21.099,1.7676212611073326e+18,15.75533251953125,-0.0006108652451075,-0.0006108652451075,0.0
2026-01-05 13:54:21.132,1.7676212611474593e+18,15.795459228515623,0.0012217304902151,-0.0006108652451075,-0.0012217304902151
2026-01-05 13:54:21.165,1.7676212611875878e+18,15.835587890625,0.0012217304902151,-0.00030543143784769343,0.0
2026-01-05 13:54:21.198,1.767621261227714e+18,15.875714111328126,0.0012217304902151,-0.0006108652451075,0.0
2026-01-05 13:54:21.231,1.7676212612478185e+18,15.895818603515623,0.0006108652451075,-0.00030543143784769343,0.0
2026-01-05 13:54:21.264,1.76762126126784e+18,15.915840087890626,-0.0006108652451075,0.0,0.0
2026-01-05 13:54:21.297,1.7676212613079654e+18,15.95596533203125,-0.0006108652451075,0.0012217304902151,0.0
2026-01-05 13:54:21.330,1.7676212613480942e+18,15.99609423828125,-0.0006108652451075,0.0012217304902151,0.0
2026-01-05 13:54:21.363,1.7676212613882168e+18,16.036216796875,-0.0006108652451075,0.0012217304902151,0.0
2026-01-05 13:54:21.396,1.7676212614183278e+18,16.066327880859376,0.0,0.0012217304902151,0.0
2026-01-05 13:54:21.429,1.7676212614434043e+18,16.09140419960909,0.00015271690362990325,0.00030542906843560535,0.000610862875695437
2026-01-05 13:54:21.462,1.7676212614684808e+18,16.116480712890624,0.00015271690362990325,-0.0006108652451075,0.000610862875695437
2026-01-05 13:54:21.495,1.7676212615085906e+18,16.156590576171876,0.0,0.0,0.0012217304902151
2026-01-05 13:54:21.528,1.7676212615487073e+18,16.196707275390626,-0.0006108652451075,0.0,0.0012217304902151
2026-01-05 13:54:21.561,1.7676212615888586e+18,16.236858642578124,-0.0012217304902151,0.0,0.0009162990523673565
2026-01-05 13:54:21.594,1.7676212616089216e+18,16.25692167510929,-0.0012217304902151,0.0003054314378476935,0.0009162990523673565
2026-01-05 13:54:21.627,1.7676212616289848e+18,16.27698486328125,-0.0012217304902151,0.0003054314378476935,0.0009162990523673565
2026-01-05 13:54:21.660,1.7676212616691077e+18,16.317107666015627,-0.0006108652451075,0.0003054314378476935,0.0009162990523673565
2026-01-05 13:54:21.693,1.767621261709263e+18,16.35726318359375,-0.0006108652451075,0.0,0.0006108652451075
2026-01-05 13:54:21.726,1.7676212617493875e+18,16.397387451171873,-0.0006108652451075,-0.00030543265165760007,0.0
2026-01-05 13:54:21.759,1.7676212617895104e+18,16.437510498046876,-0.0006108652451075,-0.00030543265165760007,0.0
2026-01-05 13:54:21.792,1.7676212618095713e+18,16.45757141113281,0.0,0.0,-0.00030543262255375
2026-01-05 13:54:21.825,1.7676212618296323e+18,16.47763232421875,0.0,0.0006108652451075,-0.0006108652451075
2026-01-05 13:54:21.858,1.767621261869753e+18,16.517753173828126,0.0,0.0006108652451075,-0.00030543262255375
2026-01-05 13:54:21.891,1.7676212619098724e+18,16.557872314453125,0.0,0.0006108652451075,0.0
2026-01-05 13:54:21.924,1.7676212619500063e+18,16.59800634765625,-0.0006108652451075,0.0,0.0
2026-01-05 13:54:21.957,1.7676212619700672e+18,16.61806718293031,-0.0006108652451075,0.0,0.0009163014508834326
2026-01-05 13:54:21.990,1.767621261990128e+18,16.638128173828125,-0.0009162966829552434,-0.0003054314378476935,0.0018325957935303
2026-01-05 13:54:22.023,1.767621262030254e+18,16.678254150390625,-0.0012217304902151,-0.0003054314378476935,0.0012217304902151
2026-01-05 13:54:22.056,1.767621262070382e+18,16.718382080078126,-0.0012217304902151,0.0006108652451075,0.0018325957935303
2026-01-05 13:54:22.089,1.7676212621105085e+18,16.758508544921874,-0.0006108652451075,0.0006108652451075,0.0018325957935303
2026-01-05 13:54:22.122,1.7676212621506076e+18,16.798607666015624,-0.0006108652451075,0.00030543143784769343,0.0012217304902151
2026-01-05 13:54:22.155,1.767621262170661e+18,16.818661210595494,-0.0006108652451075,0.0006108652451075,0.0012217304902151
2026-01-05 13:54:22.188,1.7676212621907146e+18,16.838714599609375,2.3694121131269397e-09,0.0006108652451075,0.0012217304902151
2026-01-05 13:54:22.221,1.7676212622308296e+18,16.87882958984375,0.0006108652451075,0.0006108652451075,0.0012217233528750736
2026-01-05 13:54:22.254,1.7676212622709565e+18,16.91895654296875,0.0006108652451075,0.0006108652451075,0.0006108652451075
2026-01-05 13:54:22.287,1.767621262311084e+18,16.959083984375,0.0006108651868998998,0.0006108652451075,0.0006108652451075
2026-01-05 13:54:22.320,1.7676212623511992e+18,16.99919921875,0.0006108652451075,0.0006108652451075,0.00030543262255375
2026-01-05 13:54:22.353,1.767621262371256e+18,17.019256103515623,0.0006108651868998998,0.0006108652451075,0.0
2026-01-05 13:54:22.386,1.767621262391313e+18,17.03931298828125,0.0,0.0,0.0
2026-01-05 13:54:22.419,1.7676212624314204e+18,17.07942041015625,0.0,0.0,0.0
2026-01-05 13:54:22.452,1.7676212624715364e+18,17.119536376953125,-0.0006108652451075,0.0009162966829552434,0.0
2026-01-05 13:54:22.485,1.767621262511651e+18,17.159651123046874,-0.0018325957935303,0.0009162966829552434,0.0
2026-01-05 13:54:22.518,1.7676212625317105e+18,17.17971052702447,-0.0018325957935303,0.0006108652451075,0.0
2026-01-05 13:54:22.551,1.7676212625517699e+18,17.199769775390624,-0.0018325957935303,0.0009162966829552434,0.0009162943426468676
2026-01-05 13:54:22.584,1.767621262591891e+18,17.239890869140623,-0.0018325957935303,0.0006108652451075,0.0
2026-01-05 13:54:22.617,1.7676212626320174e+18,17.280017333984375,-0.0006108652451075,0.0,0.0
2026-01-05 13:54:22.650,1.7676212626721242e+18,17.320124267578127,-0.0006108652451075,0.0,0.0012217304902151
2026-01-05 13:54:22.683,1.7676212627122355e+18,17.360235595703124,-0.0006108652451075,0.0006108652451075,0.0012217304902151
2026-01-05 13:54:22.716,1.7676212627323397e+18,17.380339599609375,-0.0006108652451075,-0.0006108652451075,0.0012217304902151
2026-01-05 13:54:22.749,1.7676212627523592e+18,17.400359130859375,-0.0006108652451075,-0.0006108652451075,0.0012217304902151
2026-01-05 13:54:22.782,1.7676212627924818e+18,17.440481689453126,-0.0012217304902151,0.0006108652451075,0.0012217304902151
2026-01-05 13:54:22.815,1.7676212628326072e+18,17.480607177734374,-0.0012217304902151,0.0006108652451075,0.0012217304902151
2026-01-05 13:54:22.848,1.7676212628727252e+18,17.520725341796876,-0.0012217304902151,0.0003054338072598065,0.0012217400260714282
2026-01-05 13:54:22.881,1.7676212629128417e+18,17.560841796875,0.0,0.0003054338072598065,0.0012217400260714282
2026-01-05 13:54:22.914,1.7676212629329037e+18,17.580903730777614,0.0,0.0003054338072598065,0.0012217400260714282
2026-01-05 13:54:22.947,1.767621262952966e+18,17.6009658203125,0.0006108652451075,0.0,0.0012217400260714282
2026-01-05 13:54:22.980,1.7676212629930934e+18,17.64109326171875,0.0006108652451075,-0.0006108652451075,0.0
2026-01-05 13:54:23.013,1.767621263033213e+18,17.681212890625,-0.0006108652451075,-0.0006108652451075,0.0
2026-01-05 13:54:23.046,1.7676212630733332e+18,17.721333251953126,-0.0006108652451075,-0.0006108652451075,0.0
2026-01-05 13:54:23.079,1.7676212630934364e+18,17.7414365234375,-0.0006108652451075,-0.0006108652451075,0.0
2026-01-05 13:54:23.112,1.7676212631134612e+18,17.761461181640627,-0.0006108652451075,-0.0006108652451075,0.0
2026-01-05 13:54:23.145,1.767621263153584e+18,17.801584228515626,-0.0006108652451075,-0.0006108652451075,0.0
2026-01-05 13:54:23.178,1.7676212631937075e+18,17.84170751953125,-0.0006108652451075,-0.0006108652451075,-0.0006108652451075
2026-01-05 13:54:23.211,1.7676212632338363e+18,17.881836181640626,-0.0006108581368712107,-0.0006108652451075,0.0
2026-01-05 13:54:23.244,1.7676212632739658e+18,17.9219658203125,-0.0006108581368712107,0.0006108652451075,0.0003054290684356304
2026-01-05 13:54:23.277,1.767621263294026e+18,17.942025923167527,-0.0006108581368712107,0.0006108652451075,0.0003054290684356304
2026-01-05 13:54:23.310,1.7676212633140861e+18,17.962086181640625,-0.0006108581368712107,0.0006108652451075,0.0006108652451075
2026-01-05 13:54:23.343,1.767621263354211e+18,18.002211181640625,-0.0006108652451075,0.0006108652451075,0.0012217304902151
2026-01-05 13:54:23.376,1.7676212633943698e+18,18.04236987304688,-0.0006108652451075,0.0,0.0012217304902151
2026-01-05 13:54:23.409,1.767621263434497e+18,18.0824970703125,-0.00015271690362992824,0.0,0.0006108652451075
2026-01-05 13:54:23.442,1.7676212634746294e+18,18.12262939453125,-0.0003054326225538,0.0,0.0
2026-01-05 13:54:23.475,1.767621263499723e+18,18.147723058758213,-0.00015271690362992824,-0.0009162943426468676,-0.00030543380725983155
2026-01-05 13:54:23.508,1.7676212635248164e+18,18.17281652832031,-0.00015271690362992824,-0.0009162943426468676,-0.00030543380725983155
2026-01-05 13:54:23.541,1.7676212635548961e+18,18.202896240234374,-0.00015271690362992824,0.0,-0.00030543380725983155
2026-01-05 13:54:23.574,1.7676212635950167e+18,18.2430166015625,0.0,0.0,-0.00061086524510755
2026-01-05 13:54:23.607,1.7676212636351378e+18,18.2831376953125,0.0012217304902151,-0.00091629786766135,-0.00091629789676515
2026-01-05 13:54:23.640,1.7676212636552023e+18,18.303202392578125,0.0012217304902151,0.0,-0.0006108652451075
2026-01-05 13:54:23.673,1.767621263675267e+18,18.32326708984375,0.0012217304902151,0.0006108652451075,-0.0006108652451075
2026-01-05 13:54:23.706,1.7676212637153887e+18,18.363388671875,-0.0006108652451075,-0.0006108652451075,-0.0006108652451075
2026-01-05 13:54:23.739,1.7676212637555105e+18,18.403510498046877,-0.0006108652451075,0.0,0.0
2026-01-05 13:54:23.772,1.7676212637956316e+18,18.44363159179688,-0.0006108652451075,0.0,0.0
2026-01-05 13:54:23.805,1.7676212638357586e+18,18.48375854492188,-0.0006108652451075,0.0,0.0006108652451075
2026-01-05 13:54:23.838,1.767621263855856e+18,18.503856201171875,-0.0006108652451075,0.0,0.0
2026-01-05 13:54:23.871,1.7676212638758735e+18,18.52387353515625,0.0,0.0,0.0
2026-01-05 13:54:23.904,1.767621263915992e+18,18.563991943359376,0.0,-0.0006108652451075,0.0
2026-01-05 13:54:23.937,1.7676212639561144e+18,18.604114501953124,0.0,-0.0012217304902151,0.0
2026-01-05 13:54:23.970,1.767621263996233e+18,18.64423291015625,0.0006108652451075,-0.0024434609804302,-0.0012217352290393262
2026-01-05 13:54:24.003,1.767621264016291e+18,18.6642909713552,0.0006108652451075,-0.0024434609804302,-0.0012217352290393262
2026-01-05 13:54:24.036,1.767621264036349e+18,18.684348876953123,0.0006108652451075,-0.0012217304902151,-0.0012217352290393262
2026-01-05 13:54:24.069,1.76762126407646e+18,18.7244599609375,-0.0006108652451075,-0.0012217304902151,-0.0012217352290393262
2026-01-05 13:54:24.102,1.767621264116593e+18,18.764593017578125,-0.0006108652742114,-0.0009162978676613,-0.0006108652451075
2026-01-05 13:54:24.135,1.76762126415671e+18,18.8047099609375,-0.0006108652742114,-0.0009162978676613,-0.000152716311276875
2026-01-05 13:54:24.168,1.7676212641868221e+18,18.834822265625,-0.0006108652742114,-0.0012217304902151,-0.000152716311276875
2026-01-05 13:54:24.201,1.7676212642118856e+18,18.8598857421875,-0.0006108652742114,-0.00167987942404575,0.0
2026-01-05 13:54:24.234,1.7676212642369492e+18,18.88494921875,0.0,-0.00167987942404575,0.0
2026-01-05 13:54:24.267,1.767621264277058e+18,18.92505810546875,0.0006108652451075,-0.0018325957935303,0.0
2026-01-05 13:54:24.300,1.767621264317168e+18,18.965168212890624,0.0,-0.0018325957935303,0.0006108652451075
2026-01-05 13:54:24.333,1.7676212643572692e+18,19.00526928710937,-0.00030543262255375,-0.0018325957935303,0.0006108652451075
2026-01-05 13:54:24.366,1.7676212643973868e+18,19.04538671875,0.0,-0.0006108652451075501,0.0006108652451075
2026-01-05 13:54:24.399,1.7676212644174508e+18,19.06545068359375,-0.00030543262255375,-0.0018325957935303,0.0006108652451075
2026-01-05 13:54:24.432,1.7676212644375148e+18,19.0855146484375,-0.00030543262255375,-0.0006108652451075501,0.0006108652451075
2026-01-05 13:54:24.465,1.7676212644776353e+18,19.12563525390625,-0.00030543262255375,0.0006108652451075,0.0006108652451075
2026-01-05 13:54:24.498,1.7676212645177485e+18,19.16574853515625,-0.0012217304902151,0.0006108652451075,0.0012217304902151
2026-01-05 13:54:24.531,1.767621264557865e+18,19.20586499023437,-0.0018325957935303,0.0,0.0015271631418727
2026-01-05 13:54:24.564,1.767621264577916e+18,19.225915771484374,-0.0018325957935303,0.0,0.0015271631418727
2026-01-05 13:54:24.597,1.7676212645979666e+18,19.245966552734377,-0.0018325957935303,-0.0006108652451075,0.0012217304902151
2026-01-05 13:54:24.630,1.7676212646380861e+18,19.286086181640623,0.0,-0.0006108652451075,0.0012217304902151
2026-01-05 13:54:24.663,1.7676212646782031e+18,19.326203125,0.0,-0.0006108652451075,0.0006108652451075
2026-01-05 13:54:24.696,1.7676212647183204e+18,19.3663203125,0.0,-0.0006108652451075,0.0
2026-01-05 13:54:24.729,1.7676212647584412e+18,19.40644116210937,0.0,-4.738824226037039e-09,-0.0006108652451075
2026-01-05 13:54:24.762,1.7676212647784993e+18,19.426499311846978,0.0,0.0,-0.0009162966829552434
2026-01-05 13:54:24.795,1.7676212647985577e+18,19.4465576171875,0.0,-4.738824226037039e-09,-0.0012217304902151
2026-01-05 13:54:24.828,1.767621264838664e+18,19.48666381835937,-0.000610860535387061,-4.738824226037039e-09,-0.0012217304902151
2026-01-05 13:54:24.861,1.7676212648787822e+18,19.5267822265625,-0.0006108652451075,0.0,-0.0012217304902151
2026-01-05 13:54:24.894,1.7676212649189036e+18,19.566903564453124,-0.0006108652451075,-0.0006108652451075,-0.0012217304902151
2026-01-05 13:54:24.927,1.7676212649590295e+18,19.607029541015624,-0.0006108652451075,-0.0006108652451075,-0.0012217304902151
2026-01-05 13:54:24.960,1.767621264979133e+18,19.6271328125,-0.0006108652451075,-0.0006108652451075,-0.0006108652451075
2026-01-05 13:54:24.993,1.7676212649991514e+18,19.6471513671875,-0.0006108652451075,-0.0006108652451075,-0.0006108652451075
2026-01-05 13:54:25.026,1.767621265039267e+18,19.68726708984375,-0.0012217304902151,-0.0006108652451075,-0.0006108652451075
2026-01-05 13:54:25.059,1.7676212650793756e+18,19.72737573242188,-0.0012217304902151,-0.0006108652451075,-0.0006108652451075
2026-01-05 13:54:25.092,1.7676212651194867e+18,19.76748681640625,0.0,-0.0006108652451075,-0.0006108651868998999
2026-01-05 13:54:25.125,1.767621265139587e+18,19.787587158203124,-0.0012217304902151,0.0006108652451075,0.0
2026-01-05 13:54:25.158,1.7676212651696343e+18,19.81763427734375,-0.0012217304902151,-0.0006108652451075,-0.0006108651868998999
2026-01-05 13:54:25.191,1.7676212651996882e+18,19.847688232421877,-0.0012217304902151,-0.0006108652451075,0.0
2026-01-05 13:54:25.224,1.7676212652397942e+18,19.887794189453125,-0.0012217304902151,-0.0006108652451075,0.0
2026-01-05 13:54:25.257,1.7676212652799101e+18,19.92791015625,-0.0012217304902151,-0.0006108652451075,0.0006108652451075
2026-01-05 13:54:25.290,1.76762126532002e+18,19.96802001953125,-0.00045814363175713277,-0.0006108652451075,0.0007635821632894097
2026-01-05 13:54:25.323,1.7676212653451026e+18,19.993102636352084,-0.00045814363175713277,-0.00015271453421776516,0.0007635821632894097
2026-01-05 13:54:25.356,1.7676212653701852e+18,20.01818505859375,-0.00045814363175713277,-0.00015271453421776516,0.0007635821632894097
2026-01-05 13:54:25.389,1.7676212654002532e+18,20.04825317382813,0.0006108652451075,-0.00015271453421776516,0.0007635821632894097
2026-01-05 13:54:25.422,1.7676212654403643e+18,20.0883642578125,0.0006108652451075,0.0,0.00091629789676515
2026-01-05 13:54:25.455,1.7676212654804797e+18,20.128479736328124,0.00030543265165760007,0.0,0.0012217304902151
2026-01-05 13:54:25.488,1.7676212655205893e+18,20.16858935546875,0.00030543265165760007,-0.0006108652451075,0.0012217304902151
2026-01-05 13:54:25.521,1.7676212655406403e+18,20.18864013671875,0.0006108652451075,-0.0006108652451075,0.0012217304902151
2026-01-05 13:54:25.554,1.767621265560691e+18,20.20869091796875,0.00030543265165760007,0.0,0.0012217304902151
2026-01-05 13:54:25.587,1.7676212656008028e+18,20.248802734375,0.00030543265165760007,-0.0006108652451075,0.0006108652451075
2026-01-05 13:54:25.620,1.7676212656409213e+18,20.28892138671875,-0.0006108652451075,-0.0012217304902151,0.0006108652451075
2026-01-05 13:54:25.653,1.767621265681046e+18,20.3290458984375,-0.0006108652451075,-0.0012217304902151,0.0006108652451075
2026-01-05 13:54:25.686,1.7676212657011062e+18,20.349106156910597,-0.0012217281499066741,-0.0012217304902151,0.0006108652451075
2026-01-05 13:54:25.719,1.7676212657211663e+18,20.369166259765624,-0.0018325957935303,-0.0012217304902151,0.0006108652451075
2026-01-05 13:54:25.752,1.7676212657612777e+18,20.409277587890625,-0.0018325957935303,-0.0012217304902151,0.0006108652451075
2026-01-05 13:54:25.785,1.7676212658013824e+18,20.44938232421875,-0.0018325957935303,-0.0012217304902151,0.0006108652451075
2026-01-05 13:54:25.818,1.7676212658414943e+18,20.489494384765624,-0.0018325957935303,-0.0012217304902151,0.0
2026-01-05 13:54:25.851,1.7676212658816092e+18,20.52960913085937,0.0018325957935303,-0.0012217304902151,0.0
2026-01-05 13:54:25.884,1.7676212659016686e+18,20.54966857910156,0.0018325957935303,-0.0012217304902151,0.0
2026-01-05 13:54:25.917,1.767621265921728e+18,20.56972802734375,0.0018325957935303,-0.0012217304902151,0.0
2026-01-05 13:54:25.950,1.7676212659618427e+18,20.6098427734375,-0.0012217304902151,0.0,0.0006108652451075
2026-01-05 13:54:25.983,1.7676212660019592e+18,20.649959228515623,-0.0012217304902151,0.0,0.0012217304902151
2026-01-05 13:54:26.016,1.7676212660420652e+18,20.690065185546874,-0.0012217304902151,0.0,0.0012217304902151
2026-01-05 13:54:26.049,1.767621266062162e+18,20.710161865234376,-0.0006108652451075,0.0,0.0006108652451075
2026-01-05 13:54:26.082,1.7676212660821734e+18,20.73017333984375,0.0,0.0,0.0006108652451075
2026-01-05 13:54:26.115,1.767621266132347e+18,20.780347045898438,0.0003054326225538,-0.0006108652451075,0.00030543262255375
2026-01-05 13:54:26.148,1.7676212661623854e+18,20.81038549804688,0.0018325957935303,-0.0006108652451075,-0.0006108652451075
2026-01-05 13:54:26.181,1.7676212662025027e+18,20.850502685546875,0.0018325957935303,-0.0006108652451075,-0.0006108652742114
2026-01-05 13:54:26.214,1.7676212662426148e+18,20.89061474609375,0.0018325957935303,-0.0006108652451075,-0.0006108652742114
2026-01-05 13:54:26.247,1.767621266262682e+18,20.91068225097656,0.0006108652742114,-0.0006108652451075,-0.0012217304902151
2026-01-05 13:54:26.280,1.7676212662827497e+18,20.93074975585937,-0.0006108652451075,-0.0006108652451075,-0.0006108652742114
2026-01-05 13:54:26.313,1.76762126632286e+18,20.970860107421878,-0.0006108652451075,-0.0018325957935303,-0.0006108652451075
2026-01-05 13:54:26.346,1.76762126636298e+18,21.01097998046875,-0.0006108652451075,-0.0018325957935303,0.0
2026-01-05 13:54:26.379,1.767621266403101e+18,21.051100830078123,-0.0018325957935303,-0.0018325957935303,-0.0006108652451075
2026-01-05 13:54:26.412,1.7676212664432192e+18,21.09121923828125,-0.0006108652451075,-0.0012217304902151,-0.0006108652451075
2026-01-05 13:54:26.445,1.7676212664633175e+18,21.1113173828125,-0.0006108652451075,-0.0006108652451075,-0.0006108652451075
2026-01-05 13:54:26.478,1.7676212664833326e+18,21.13133251953125,-0.0006108652451075,0.0,0.0
2026-01-05 13:54:26.511,1.7676212665234378e+18,21.171437744140626,-0.0006108652451075,0.0,0.0003054326225538
2026-01-05 13:54:26.544,1.7676212665635558e+18,21.211555908203124,0.0,-0.000305433821811813,0.0007635797793253652
2026-01-05 13:54:26.577,1.767621266593668e+18,21.241668212890627,0.0,0.0,0.0012217304902151
2026-01-05 13:54:26.610,1.7676212666187359e+18,21.26673598675161,0.0,-0.000305433821811813,0.0007635797793253652
2026-01-05 13:54:26.643,1.767621266643804e+18,21.291803955078127,0.0,-0.0006108652451075,0.0003054326225538
2026-01-05 13:54:26.676,1.767621266683938e+18,21.33193798828125,-0.0006108652451075,-0.000305433821811813,-0.0006108652451075
2026-01-05 13:54:26.709,1.7676212667240604e+18,21.372060302734376,-0.0006108652451075,-0.0006108652451075,-0.0006108652451075
2026-01-05 13:54:26.742,1.7676212667641738e+18,21.412173828125,-0.0006108652451075,-0.0006108652451075,-0.0006108652451075
2026-01-05 13:54:26.775,1.7676212668042954e+18,21.45229541015625,0.00091629789676515,-0.0012217304902151,-0.0006108652451075
2026-01-05 13:54:26.808,1.7676212668293862e+18,21.477386474609375,0.00091629789676515,-0.00137444678694005,0.0
2026-01-05 13:54:26.841,1.7676212668544773e+18,21.502477539062504,0.00091629789676515,-0.00137444678694005,0.0
2026-01-05 13:54:26.874,1.7676212668845594e+18,21.532559326171874,0.0,-0.00137444678694005,0.0
2026-01-05 13:54:26.907,1.7676212669246866e+18,21.5726865234375,0.0,-0.0006108652451075,0.0
2026-01-05 13:54:26.940,1.7676212669648123e+18,21.61281225585937,-0.0006108652451075,-0.0006108652451075,0.0
2026-01-05 13:54:26.973,1.7676212670049231e+18,21.652923095703127,-0.0010690183399613795,0.00030543262255375,0.0003054326225538
2026-01-05 13:54:27.006,1.767621267030005e+18,21.67800504113464,-0.0010690183399613795,0.00030543262255375,0.0010690112462767958
2026-01-05 13:54:27.039,1.7676212670550866e+18,21.70308679199219,-0.0010690183399613795,0.0006108652451075,0.0010690112462767958
2026-01-05 13:54:27.072,1.767621267085154e+18,21.73315405273437,-0.00213802838698025,0.0006108652451075,0.0006108652451075
2026-01-05 13:54:27.105,1.7676212671252756e+18,21.773275634765625,-0.00213802838698025,0.00030543262255375,0.0006108652451075
2026-01-05 13:54:27.138,1.7676212671653924e+18,21.81339233398437,-0.0021380247746545433,0.00030543143784769343,0.0006108652451075
2026-01-05 13:54:27.171,1.7676212671854597e+18,21.83345967256306,-0.0012217304902151,0.00030543143784769343,-0.0009163037911916329
2026-01-05 13:54:27.204,1.7676212672055268e+18,21.85352685546875,-0.0012217304902151,0.0,-0.0009163037911916329
2026-01-05 13:54:27.237,1.7676212672557012e+18,21.903701293945314,-0.0012217304902151,0.0,-0.0009163037911916329
2026-01-05 13:54:27.270,1.767621267285774e+18,21.933774169921875,-0.0012217304902151,0.0,0.0
2026-01-05 13:54:27.303,1.767621267325907e+18,21.97390698242188,0.0,0.0,0.00030543262255375
2026-01-05 13:54:27.336,1.767621267366025e+18,22.01402490234375,-0.0012217304902151,0.0,0.00030543262255375
2026-01-05 13:54:27.369,1.7676212673860908e+18,22.03409069824219,0.0,0.0,0.0
2026-01-05 13:54:27.402,1.7676212674061565e+18,22.054156494140624,0.0012217304902151,0.0,0.00030543262255375
2026-01-05 13:54:27.435,1.767621267446277e+18,22.09427709960937,0.0,0.0,0.00030543262255375
2026-01-05 13:54:27.468,1.7676212674863918e+18,22.134391845703124,-0.0006108652451075,0.0,0.0012217304902151
2026-01-05 13:54:27.501,1.7676212675265162e+18,22.17451611328125,0.0006108652451075,0.0,0.0012217304902151
2026-01-05 13:54:27.534,1.7676212675666404e+18,22.21464038085937,0.0006108652451075,-0.0006108652451075,0.0012217304902151
2026-01-05 13:54:27.567,1.76762126758674e+18,22.23473999023437,-0.0006108652451075,0.0,0.0012217304902151
2026-01-05 13:54:27.600,1.7676212676067581e+18,22.254758056640625,0.0006108652451075,-0.0006108652451075,0.0
2026-01-05 13:54:27.633,1.7676212676468716e+18,22.29487158203125,0.0006108652451075,-0.0018325957935303,-0.0006108652451075
2026-01-05 13:54:27.666,1.767621267686978e+18,22.33497802734375,0.0006108652451075,-0.0018325957935303,0.0
2026-01-05 13:54:27.699,1.7676212677270746e+18,22.375074462890623,-0.0012217304902151,-0.0006108652451075,0.00030543617667196956
2026-01-05 13:54:27.732,1.7676212677471747e+18,22.395174560546877,0.0,-0.0012217304902151,0.0
2026-01-05 13:54:27.765,1.7676212677671946e+18,22.41519458007813,0.0,-0.0018325957935303,0.00030543617667196956
2026-01-05 13:54:27.798,1.7676212678073152e+18,22.45531518554688,0.0006108652451075,-0.0012217304902151,0.0012217304902151
2026-01-05 13:54:27.831,1.7676212678474342e+18,22.495434326171875,0.0006108652451075,0.0,0.0012217304902151
2026-01-05 13:54:27.864,1.7676212678875487e+18,22.535548583984376,0.0006108652451075,0.0,0.0012217304902151
2026-01-05 13:54:27.897,1.7676212679276593e+18,22.5756591796875,0.001221728149906674,0.0,0.0012217304902151
2026-01-05 13:54:27.930,1.7676212679477117e+18,22.59571159214267,0.0012217304902151,0.0,0.0009162990523673565
2026-01-05 13:54:27.963,1.7676212679677642e+18,22.61576416015625,0.001221728149906674,0.0,0.0006108652451075
2026-01-05 13:54:27.996,1.767621268007875e+18,22.655875,0.0012217304902151,0.0,0.0006108652451075
2026-01-05 13:54:28.029,1.7676212680479867e+18,22.695986572265625,0.0012217304902151,-0.0006108652451075,0.0006108652451075
2026-01-05 13:54:28.062,1.7676212680880988e+18,22.736098876953125,0.00061086524510755,0.0,0.0006108652451075
2026-01-05 13:54:28.095,1.767621268108156e+18,22.756156005859374,0.0006108652451075,-0.00061086524510755,0.0006108652451075
2026-01-05 13:54:28.128,1.7676212681282132e+18,22.776213134765623,0.00061086524510755,-0.0012217304902151,0.0006108652451075
2026-01-05 13:54:28.161,1.7676212681683264e+18,22.816326416015624,0.0,-0.00061086524510755,0.0006108652451075
2026-01-05 13:54:28.194,1.7676212682084298e+18,22.856429931640623,0.0,-0.0012217304902151,0.0006108652451075
2026-01-05 13:54:28.227,1.767621268238532e+18,22.88653198242187,0.0,-0.0012217304902151,0.00091629789676515
2026-01-05 13:54:28.260,1.767621268288656e+18,22.93665576171875,0.0,-0.0018325933659105369,0.00091629789676515
2026-01-05 13:54:28.293,1.7676212683087145e+18,22.95671439973571,0.0,-0.0012217304902151,0.0009162990523673565
2026-01-05 13:54:28.326,1.767621268328773e+18,22.97677319335937,0.0,-0.0018325933659105369,0.0009162990523673565
2026-01-05 13:54:28.359,1.7676212683688863e+18,23.01688623046875,0.0,-0.0018325933659105369,0.0006108652451075
2026-01-05 13:54:28.392,1.767621268409005e+18,23.05700512695313,0.0,-0.0012217304902151,0.0006108652451075
2026-01-05 13:54:28.425,1.7676212684491825e+18,23.097182373046877,-0.0006108652451075,-0.0012217304902151,-0.0012217304902151
2026-01-05 13:54:28.458,1.7676212684892997e+18,23.1372998046875,-0.0009163085591199977,-0.0012217304902151,-0.0012217304902151
2026-01-05 13:54:28.491,1.7676212685093599e+18,23.157359941089812,-0.0009163085591199977,0.0,-0.0012217304902151
2026-01-05 13:54:28.524,1.76762126852942e+18,23.177419921875,0.0018325957935303,0.0,-0.0012217304902151
2026-01-05 13:54:28.557,1.7676212685695483e+18,23.21754833984375,0.0018325957935303,0.0,-0.0018325957935303
2026-01-05 13:54:28.590,1.767621268609677e+18,23.257677001953127,0.0018325957935303,0.0,-0.0018325957935303
2026-01-05 13:54:28.623,1.7676212686498104e+18,23.297810546875,0.0018325957935303,-0.00030543262255375,-0.0018325957935303
2026-01-05 13:54:28.656,1.76762126866987e+18,23.317869995117185,0.0,-0.0006108652451075,-0.0006108652451075501
2026-01-05 13:54:28.689,1.7676212686899295e+18,23.33792944335937,0.0,-0.00030543262255375,0.0012217304902151
2026-01-05 13:54:28.722,1.7676212687300516e+18,23.378051513671878,0.0,-0.00030543262255375,0.0012217304902151
2026-01-05 13:54:28.755,1.7676212687701798e+18,23.418179931640623,0.0,-0.0006108652451075,0.0018325957935303
2026-01-05 13:54:28.788,1.7676212688103e+18,23.4582998046875,0.0,-0.0006108652451075,0.0018325957935303
2026-01-05 13:54:28.821,1.7676212688504138e+18,23.49841381835937,-0.0006108652451075,-0.0006108652451075,0.0012217304902151
2026-01-05 13:54:28.854,1.7676212688704735e+18,23.518473588549327,-0.0006108652451075,-0.0006108652451075,0.0009162943426468676
2026-01-05 13:54:28.887,1.767621268890533e+18,23.538533203125,-0.0006108652451075,-0.0006108652451075,0.0
2026-01-05 13:54:28.920,1.7676212689306806e+18,23.5786806640625,-0.0006108652451075,-0.0006108652451075,0.0
2026-01-05 13:54:28.953,1.7676212689707973e+18,23.61879736328125,0.0,0.0,0.0
2026-01-05 13:54:28.986,1.7676212690009108e+18,23.648910766601563,0.0,0.0,0.0
2026-01-05 13:54:29.019,1.767621269051051e+18,23.699051025390624,0.0012217304902151,0.0,0.0
2026-01-05 13:54:29.052,1.767621269071112e+18,23.719111938476562,0.0012217304902151,0.0,0.0
2026-01-05 13:54:29.085,1.7676212690911729e+18,23.7391728515625,0.0012217304902151,0.0,0.0
2026-01-05 13:54:29.118,1.7676212691312968e+18,23.779296875,0.0006108652451075,0.0,0.0006108652451075
2026-01-05 13:54:29.151,1.7676212691714388e+18,23.81943896484375,-0.0006108652742114,0.0,0.0006108652451075
2026-01-05 13:54:29.184,1.7676212692115523e+18,23.85955224609375,-0.0006108652742114,0.0,0.0006108652451075
2026-01-05 13:54:29.217,1.767621269231609e+18,23.879609130859375,-0.0006108652742114,0.0,-0.0003054326225538
2026-01-05 13:54:29.250,1.767621269251666e+18,23.899666015625,-0.0006108652742114,0.0,-0.0003054326225538
2026-01-05 13:54:29.283,1.7676212692917793e+18,23.939779296875,-0.0006108652742114,-0.0006108652451075,-0.0003054326225538
2026-01-05 13:54:29.316,1.7676212693318897e+18,23.9798896484375,-0.00152716308366505,-0.0006108652451075,-0.0006108652451075
2026-01-05 13:54:29.349,1.7676212693620014e+18,24.010001220703128,-0.00152716308366505,-0.0006108652451075,0.0
2026-01-05 13:54:29.382,1.7676212694121183e+18,24.0601181640625,-0.00091629789676515,-0.00030543262255375,0.0
2026-01-05 13:54:29.415,1.7676212694321728e+18,24.08017272949219,-0.00091629789676515,-0.00030543262255375,0.0
2026-01-05 13:54:29.448,1.7676212694522273e+18,24.10022729492188,-0.00091629789676515,-0.00030543262255375,0.0
2026-01-05 13:54:29.481,1.7676212694923343e+18,24.140334228515623,0.0,-0.00030543262255375,0.0
2026-01-05 13:54:29.514,1.7676212695324362e+18,24.180436279296877,0.0,0.0,0.00030543265165760007
2026-01-05 13:54:29.547,1.7676212695725443e+18,24.220544189453125,0.0,-0.00015271334951173375,1.1992580130457293e-09
2026-01-05 13:54:29.580,1.7676212696026445e+18,24.25064440917969,-0.0003054314378476935,-0.0009162978676613,-0.0003054326225538
2026-01-05 13:54:29.613,1.7676212696327286e+18,24.28072839893536,-0.0003054314378476935,-0.0006108652451075,0.0
2026-01-05 13:54:29.646,1.7676212696628127e+18,24.310812622070312,-0.0006108652451075,-0.00015271334951173375,0.0
2026-01-05 13:54:29.679,1.767621269692879e+18,24.340879150390624,-0.0012217304902151,-0.00015271334951173375,0.0
2026-01-05 13:54:29.712,1.7676212697329915e+18,24.380991455078124,-0.0012217304902151,0.0,0.0
2026-01-05 13:54:29.745,1.767621269773109e+18,24.42110888671875,-0.0012217304902151,0.0,0.0
2026-01-05 13:54:29.778,1.7676212697932083e+18,24.441208251953125,-0.0012217304902151,0.0,0.0
2026-01-05 13:54:29.811,1.767621269813222e+18,24.461221923828123,-0.0012217304902151,0.0,0.0
2026-01-05 13:54:29.844,1.7676212698533332e+18,24.501333251953124,-0.0006108652451075,0.0,0.0
2026-01-05 13:54:29.877,1.767621269893437e+18,24.54143701171875,-0.0006108652451075,0.0,0.0
2026-01-05 13:54:29.910,1.7676212699335465e+18,24.58154638671875,-0.0006108652451075,0.0,-0.0006108652451075
2026-01-05 13:54:29.943,1.76762126997366e+18,24.621659912109376,-0.0006108652451075,0.0,-0.0006108652451075
2026-01-05 13:54:29.976,1.7676212699937577e+18,24.6417578125,-0.0006108652451075,0.0,-0.0006108652451075
2026-01-05 13:54:30.009,1.7676212700137718e+18,24.661771728515625,-0.0012217304902151,0.0,-0.0006108652451075
2026-01-05 13:54:30.042,1.7676212700538772e+18,24.701877197265624,-0.0012217304902151,0.0,-0.0006108652451075
2026-01-05 13:54:30.075,1.7676212700939814e+18,24.7419814453125,-0.0018325957935303,0.0,0.0006108652451075
2026-01-05 13:54:30.108,1.7676212701340882e+18,24.782088134765623,-0.0018325957935303,-0.0009162919441310674,0.0006108652451075
2026-01-05 13:54:30.141,1.76762127015415e+18,24.80214982452856,-0.0018325957935303,0.0006108652451075,0.0006108652451075
2026-01-05 13:54:30.174,1.7676212701742116e+18,24.822211669921877,-0.0018325957935303,0.0006108652451075,0.0006108652451075
2026-01-05 13:54:30.207,1.767621270224379e+18,24.872379028320317,-0.0018325957935303,-0.0006108652451075,0.0006108652451075
2026-01-05 13:54:30.240,1.767621270254455e+18,24.902455078125,0.0,-0.0006108652451075,0.0
2026-01-05 13:54:30.273,1.7676212702945774e+18,24.942577392578126,0.0006108652451075,-0.0006108652451075,0.0
2026-01-05 13:54:30.306,1.7676212703346893e+18,24.98268920898437,0.0006108652451075,-0.0018325957935303,4.738824226253879e-09
2026-01-05 13:54:30.339,1.7676212703547407e+18,25.00274067836088,0.0015271595586506803,-0.0018325957935303,4.738824226253879e-09
2026-01-05 13:54:30.372,1.767621270374792e+18,25.0227919921875,0.0015271595586506803,-0.0018325957935303,0.0006108652451075
2026-01-05 13:54:30.405,1.7676212704149074e+18,25.062907470703124,0.0012217304902151,0.0,0.0012217304902151
2026-01-05 13:54:30.438,1.7676212704550252e+18,25.103025146484374,0.0006108652451075,0.0,0.0018325957935303
2026-01-05 13:54:30.471,1.7676212704951524e+18,25.14315234375,-0.0009162978676613,0.0,0.0018325957935303
2026-01-05 13:54:30.504,1.7676212705352786e+18,25.18327856445313,-0.0009162978676613,0.0006108652451075,0.0018325957935303
2026-01-05 13:54:30.537,1.7676212705553403e+18,25.203340454101564,-0.0006108652451075,0.0006108652451075,0.0015271631418727
2026-01-05 13:54:30.570,1.7676212705754022e+18,25.22340234375,-0.0009162978676613,0.0006108652451075,0.0012217304902151
2026-01-05 13:54:30.603,1.7676212706155164e+18,25.263516357421874,-0.0006108652742114,0.0006108651868998999,0.0012217304902151
2026-01-05 13:54:30.636,1.7676212706556372e+18,25.30363720703125,-0.0006108652451075,0.0,0.00030543259344995
2026-01-05 13:54:30.669,1.7676212706857457e+18,25.33374560546875,-0.0006108652451075,-0.0003054362057756567,-0.00015271810288780335
2026-01-05 13:54:30.702,1.7676212707108076e+18,25.35880759232675,-0.00061086524510755,0.0,0.00030543259344995
2026-01-05 13:54:30.735,1.7676212707358694e+18,25.383869384765624,0.0,-0.0003054362057756567,-0.00015271810288780335
2026-01-05 13:54:30.768,1.767621270786031e+18,25.43403125,0.0,-0.0012217304902151,-0.0006108652451075
2026-01-05 13:54:30.801,1.7676212708160955e+18,25.46409545898437,0.0,-0.0012217304902151,-0.0006108652451075
2026-01-05 13:54:30.834,1.7676212708562056e+18,25.50420556640625,0.0,-0.0012217304902151,0.0006108652451075
2026-01-05 13:54:30.867,1.7676212708963274e+18,25.54432739257813,0.0,-0.0012217304902151,0.0006108652451075
2026-01-05 13:54:30.900,1.7676212709163889e+18,25.564388671875005,0.0,-0.00091629789676515,0.0006108652451075
2026-01-05 13:54:30.933,1.76762127093645e+18,25.58444995117188,0.0,-0.00030543262255375,0.0006108652451075
2026-01-05 13:54:30.966,1.7676212709866266e+18,25.634626708984374,-0.0006108652451075,0.0,0.0006108652451075
2026-01-05 13:54:30.999,1.7676212710167002e+18,25.6647001953125,-0.0006108652451075,0.0,0.0006108652451075
2026-01-05 13:54:31.032,1.767621271056821e+18,25.704821044921875,0.0,0.0,0.0012217304902151
2026-01-05 13:54:31.065,1.7676212710969316e+18,25.744931640625,0.0,0.0,0.0012217304902151
2026-01-05 13:54:31.098,1.767621271116989e+18,25.76498893587373,-0.0006108652451075,0.0,0.0012217304902151
2026-01-05 13:54:31.131,1.7676212711370463e+18,25.78504638671875,0.0006108652451075,0.0,0.0012217304902151
2026-01-05 13:54:31.164,1.7676212711772337e+18,25.825233642578127,-0.0006108652451075,0.0,0.0012217304902151
2026-01-05 13:54:31.197,1.7676212712173558e+18,25.865355712890626,-0.0006108652451075,0.0,0.0009162978676613498
2026-01-05 13:54:31.230,1.7676212712574766e+18,25.9054765625,-0.0006108652451075,0.0,0.0006108652451075
2026-01-05 13:54:31.263,1.7676212712775368e+18,25.92553674316406,-0.0006108652451075,0.0,0.0006108652451075
2026-01-05 13:54:31.296,1.767621271297597e+18,25.945596923828123,-0.0006108652451075,0.0,0.0009162978676613498
2026-01-05 13:54:31.329,1.7676212713377106e+18,25.985710693359376,-0.00061086524510755,0.0,0.0006108652451075
2026-01-05 13:54:31.362,1.7676212713778296e+18,26.02582958984375,0.0006108652451075,-0.0012217304902151,-0.0006108652451075
2026-01-05 13:54:31.395,1.767621271407937e+18,26.055937011718747,0.0006108652451075,-0.0015271631418727,-0.00030543617667196956
2026-01-05 13:54:31.428,1.7676212714580572e+18,26.10605712890625,0.0006108652451075,-0.0015271631418727,-0.00030543617667196956
2026-01-05 13:54:31.461,1.7676212714781174e+18,26.126117353831116,0.0006108652451075,-0.0015271631418727,-0.00030543617667196956
2026-01-05 13:54:31.494,1.7676212714981778e+18,26.146177734375,0.0006108652451075,-0.0012217304902151,-0.00030543617667196956
2026-01-05 13:54:31.527,1.7676212715382945e+18,26.18629443359375,-0.0012217304902151,-0.0012217304902151,-0.00030543617667196956
2026-01-05 13:54:31.560,1.7676212715784e+18,26.22639990234375,-0.0012217304902151,-0.0012217304902151,0.0006108652451075
2026-01-05 13:54:31.593,1.7676212716185193e+18,26.26651928710937,-0.0012217304902151,0.0,0.0006108652451075
2026-01-05 13:54:31.626,1.7676212716586435e+18,26.3066435546875,-0.0006108652451075,0.0,-0.0012217304902151
2026-01-05 13:54:31.659,1.7676212716787453e+18,26.326745361328125,-0.0006108652451075,0.0,0.0006108652451075
2026-01-05 13:54:31.692,1.7676212716987702e+18,26.346770263671875,-0.0006108652451075,0.0,0.0006108652451075
2026-01-05 13:54:31.725,1.7676212717388977e+18,26.386897705078123,-0.0006108652451075,0.0,0.0006108652451075
2026-01-05 13:54:31.758,1.7676212717790205e+18,26.4270205078125,-0.0006108652451075,-0.0006108652451075,-0.00091629789676515
2026-01-05 13:54:31.791,1.767621271819143e+18,26.467142822265625,-0.0012217304611113,-0.0009162978822132,0.0
2026-01-05 13:54:31.824,1.7676212718442237e+18,26.492223693847656,-0.00030543260800190003,-0.0009162978822132,-0.0006108652451075
2026-01-05 13:54:31.857,1.7676212718693046e+18,26.51730456542969,-0.00030543260800190003,-0.0009162978822132,-0.00091629789676515
2026-01-05 13:54:31.890,1.767621271899371e+18,26.54737109375,-0.0012217304611113,-0.0012217305193189,-0.0006108652451075
2026-01-05 13:54:31.923,1.7676212719394918e+18,26.58749194335937,-0.0012217304611113,-0.0012217305193189,0.0
2026-01-05 13:54:31.956,1.7676212719796111e+18,26.627611083984377,0.0006108652451075,-0.00030543617667196966,0.00030543143784769343
2026-01-05 13:54:31.989,1.7676212720197148e+18,26.66771484375,0.0006108652451075,-0.0012217304902151,0.00030543143784769343
2026-01-05 13:54:32.022,1.767621272039778e+18,26.68777815399275,0.0006108652451075,-0.0006108652451075,0.00030543143784769343
2026-01-05 13:54:32.055,1.7676212720598413e+18,26.70784130859375,0.0006108652451075,-0.00030543617667196966,0.00030543143784769343
2026-01-05 13:54:32.088,1.7676212720999537e+18,26.74795361328125,0.0,-0.00030543617667196966,0.0
2026-01-05 13:54:32.121,1.767621272140066e+18,26.788066162109374,-0.0009162966829552434,-0.00030543380725980656,0.0
2026-01-05 13:54:32.154,1.7676212721801777e+18,26.828177734375,-0.0009162966829552434,-0.00030543380725980656,0.0
2026-01-05 13:54:32.187,1.7676212722002322e+18,26.848232255521154,-0.0012217304902151,-0.00030543380725980656,0.0
2026-01-05 13:54:32.220,1.7676212722202867e+18,26.86828662109375,-0.0009162966829552434,-0.0006108652451075,0.0
2026-01-05 13:54:32.253,1.767621272260397e+18,26.90839697265625,-0.0006108652451075,-0.0006108652451075,0.0
2026-01-05 13:54:32.286,1.7676212723005056e+18,26.94850561523437,0.0,-0.0006108652451075,0.0
2026-01-05 13:54:32.319,1.7676212723406246e+18,26.988624755859377,0.0006108652451075,-0.0010690141789382,-0.0006108652451075
2026-01-05 13:54:32.352,1.7676212723707336e+18,27.018733764648438,0.0012217304902151,-0.0010690141789382,-0.00076358155638445
2026-01-05 13:54:32.385,1.7676212723957957e+18,27.043795837402342,0.0006108652451075,-0.0006108652451075,-0.00076358155638445
2026-01-05 13:54:32.418,1.7676212724208579e+18,27.06885791015625,0.0006108652451075,-0.0006108652451075,-0.0024434609804302
2026-01-05 13:54:32.451,1.7676212724609756e+18,27.1089755859375,0.0006108652451075,-0.0006108652451075,-0.0024434609804302
2026-01-05 13:54:32.484,1.767621272501093e+18,27.149093017578124,0.0006108652451075,-0.0006108652451075,-0.0024434609804302
2026-01-05 13:54:32.517,1.767621272541235e+18,27.18923486328125,-0.0001527163112769001,-0.0006108652451075,-0.0012217304902151
2026-01-05 13:54:32.550,1.7676212725813443e+18,27.22934423828125,0.0006108652451075,-0.0006108652451075,-0.0012217304902151
2026-01-05 13:54:32.583,1.7676212726064207e+18,27.25442071533203,0.0006108652451075,-0.0006108652451075,-0.00091629789676515
2026-01-05 13:54:32.616,1.7676212726314972e+18,27.279497192382813,0.0006108652451075,-0.0006108652451075,0.0
2026-01-05 13:54:32.649,1.7676212726615598e+18,27.309559814453124,0.0006108652451075,0.0,-0.0006108652451075
2026-01-05 13:54:32.682,1.7676212727016655e+18,27.34966552734375,0.0006108652451075,0.0,0.0
2026-01-05 13:54:32.715,1.7676212727417738e+18,27.38977392578125,0.0,0.0,0.0
2026-01-05 13:54:32.748,1.7676212727618378e+18,27.409837890625,-0.00030543262255375,0.0,0.0003054326225538
2026-01-05 13:54:32.781,1.7676212727819018e+18,27.42990185546875,-0.00030543262255375,0.0,0.0003054326225538
2026-01-05 13:54:32.814,1.7676212728220132e+18,27.47001318359375,0.0,0.0,0.0003054326225538
2026-01-05 13:54:32.847,1.7676212728621312e+18,27.510131103515626,0.0,0.0,0.0006108652451075
2026-01-05 13:54:32.880,1.767621272902245e+18,27.5502451171875,-2.3694121130185195e-09,0.0,0.0006108652451075
2026-01-05 13:54:32.913,1.7676212729423593e+18,27.590359375,0.0006108652451075,0.0,0.0
2026-01-05 13:54:32.946,1.7676212729624138e+18,27.610413740572593,-2.3694121130185195e-09,0.0,0.0006108652451075
2026-01-05 13:54:32.979,1.7676212729824684e+18,27.63046826171875,-2.3694121130185195e-09,0.0,0.000610867614519663
2026-01-05 13:54:33.012,1.767621273022572e+18,27.67057202148437,-2.3694121130185195e-09,0.0,0.0006108652451075
2026-01-05 13:54:33.045,1.7676212730626819e+18,27.710681884765624,0.0006108652451075,0.0,0.0006108652451075
2026-01-05 13:54:33.078,1.767621273092779e+18,27.740778930664064,0.00030543265165760007,0.0,0.0006108652451075
2026-01-05 13:54:33.111,1.7676212731428849e+18,27.790884765625,0.00030543265165760007,0.0,0.0
2026-01-05 13:54:33.144,1.7676212731629394e+18,27.81093933105469,-0.0003054326225538,0.0006108652451075,0.0
2026-01-05 13:54:33.177,1.767621273182994e+18,27.830993896484376,0.00030543265165760007,-0.0003054326225538,0.0006108652451075
2026-01-05 13:54:33.210,1.7676212732231025e+18,27.8711025390625,-0.0006108652451075,-0.0003054326225538,0.0006108652451075
2026-01-05 13:54:33.243,1.7676212732632113e+18,27.911211181640624,-0.0012217304902151,-0.0001527133640636273,0.0006108652451075
2026-01-05 13:54:33.276,1.7676212733033313e+18,27.951331298828126,-0.00091629789676515,-0.0001527133640636273,0.0006108652451075
2026-01-05 13:54:33.309,1.767621273328421e+18,27.97642116732997,-0.00091629789676515,-0.0006108652451075,0.0006108652451075
2026-01-05 13:54:33.342,1.7676212733535112e+18,28.00151123046875,-0.0013744486222068662,-0.0006108652451075,0.0003054326225538
2026-01-05 13:54:33.375,1.767621273383579e+18,28.031578857421877,-0.00091629789676515,-0.0006108652451075,0.0003054326225538
2026-01-05 13:54:33.408,1.7676212734236925e+18,28.071692626953126,-0.0006108652451075,-0.0006108652451075,0.0003054326225538
2026-01-05 13:54:33.441,1.7676212734638065e+18,28.111806396484376,0.0,0.0,0.0006108652451075
2026-01-05 13:54:33.474,1.7676212735039114e+18,28.151911376953127,2.3694121131269397e-09,0.00030543380725980656,0.0006108652451075
2026-01-05 13:54:33.507,1.767621273523968e+18,28.171967973302646,0.0006108652451075,0.00030543380725980656,0.0006108652451075
2026-01-05 13:54:33.540,1.7676212735440243e+18,28.1920244140625,0.0006108652451075,0.0,0.0006108652451075
2026-01-05 13:54:33.573,1.7676212735841452e+18,28.232145263671875,0.0006108652451075,0.0,0.0006108652451075
2026-01-05 13:54:33.606,1.7676212736242621e+18,28.27226220703125,0.0006108652451075,0.0,0.0006108652451075
2026-01-05 13:54:33.639,1.767621273664383e+18,28.312383056640623,0.0006108652451075,0.0,0.0006108652451075
2026-01-05 13:54:33.672,1.767621273704498e+18,28.352497802734376,-0.0018325957935303,0.0,0.0006108652451075
2026-01-05 13:54:33.705,1.7676212737245484e+18,28.372548339843753,-0.0018325957935303,0.0,0.0012217304902151
2026-01-05 13:54:33.738,1.7676212737445988e+18,28.392598876953127,-0.0018325957935303,-0.0006108652451075,0.0012217304902151
2026-01-05 13:54:33.771,1.767621273784711e+18,28.4327109375,0.0,-0.0006108652451075,0.0012217304902151
2026-01-05 13:54:33.804,1.7676212738248305e+18,28.47283056640625,0.0006108652451075,-0.0006108652451075,0.0012217304902151
2026-01-05 13:54:33.837,1.7676212738649464e+18,28.512946533203124,0.0012217304902151,-0.0006108652451075,0.0009162966829552434
2026-01-05 13:54:33.870,1.7676212738850048e+18,28.533004838543647,0.0012217304902151,0.0003054267281272045,0.0009162966829552434
2026-01-05 13:54:33.903,1.767621273905063e+18,28.55306298828125,0.0,0.0003054267281272045,0.0009162966829552434
2026-01-05 13:54:33.936,1.767621273945177e+18,28.593177001953126,-0.0006108652451075,-0.0012217304902151,0.0006108652451075
2026-01-05 13:54:33.969,1.7676212739853215e+18,28.633321533203127,-0.0006108652451075,-0.0012217304902151,0.0006108652451075
2026-01-05 13:54:34.002,1.7676212740254356e+18,28.673435546875,-0.0006108652451075,0.0,0.00091629789676515
2026-01-05 13:54:34.035,1.7676212740655608e+18,28.713560791015624,-0.0006108652451075,-0.0006108652451075,0.0
2026-01-05 13:54:34.068,1.7676212740856202e+18,28.7336201171875,-0.00030543262255375,0.0,0.00061086524510755
2026-01-05 13:54:34.101,1.7676212741056794e+18,28.75367944335937,-0.00030543262255375,0.0,0.00091629789676515
2026-01-05 13:54:34.134,1.7676212741558574e+18,28.80385729980469,-0.00030543262255375,-0.0006108652451075,0.00061086524510755
2026-01-05 13:54:34.167,1.7676212741859218e+18,28.833921875,-0.0006108652451075,-0.0006108652451075,0.00061086524510755
2026-01-05 13:54:34.200,1.7676212742260892e+18,28.874089111328125,-0.0006108652451075,-0.0003054326225538,0.0006108652742114
2026-01-05 13:54:34.233,1.7676212742461473e+18,28.894147216796874,-0.0006108652451075,-0.0003054326225538,0.0006108652742114
2026-01-05 13:54:34.266,1.7676212742662054e+18,28.914205322265627,-0.0006108652451075,0.0006108652451075,0.0
2026-01-05 13:54:34.299,1.767621274306327e+18,28.9543271484375,0.0,0.0012217304902151,0.0006108652451075
2026-01-05 13:54:34.332,1.7676212743464563e+18,28.994456298828126,0.0,0.0018325957935303,0.0006108652451075
2026-01-05 13:54:34.365,1.7676212743865815e+18,29.03458154296875,0.0,0.0018325957935303,0.0006108652451075
2026-01-05 13:54:34.398,1.7676212744267023e+18,29.074702392578125,-0.0006108652451075,0.0012217304902151,0.0012217304902151
2026-01-05 13:54:34.431,1.767621274446758e+18,29.09475793457031,-0.0006108652451075,0.0009162978385574999,0.0012217304902151
2026-01-05 13:54:34.464,1.7676212744668134e+18,29.1148134765625,-0.0006108652451075,0.0006108652451075,0.0012217304902151
2026-01-05 13:54:34.497,1.767621274506932e+18,29.154931884765624,-0.0006108652451075,-0.0012217304902151,0.0006108652451075
2026-01-05 13:54:34.530,1.767621274547061e+18,29.19506103515625,-0.0006108652451075,-0.0012217304902151,0.0006108652451075
2026-01-05 13:54:34.563,1.7676212745871885e+18,29.2351884765625,-0.0006108652451075,-0.0012217304902151,0.0
2026-01-05 13:54:34.596,1.7676212746273124e+18,29.2753125,0.0,-0.0012217304902151,-0.0006108652451075
2026-01-05 13:54:34.629,1.7676212746474245e+18,29.295424560546877,0.0,-0.0012217304902151,-0.0006108652451075
2026-01-05 13:54:34.662,1.7676212746774848e+18,29.325484741210936,0.0006108652451075,-0.00061086524510755,0.0
2026-01-05 13:54:34.695,1.7676212747075505e+18,29.355550537109377,0.0012217305193189,-0.0006108652451075,-0.0006108652451075
2026-01-05 13:54:34.728,1.7676212747476695e+18,29.39566943359375,0.0012217305193189,-0.00061086524510755,-0.0012217375693475262
2026-01-05 13:54:34.761,1.7676212747877883e+18,29.435788330078125,0.0009163014508834326,-0.001221728149906674,0.0006108652451075
2026-01-05 13:54:34.794,1.7676212748078454e+18,29.45584525911734,0.0009163014508834326,-0.001221728149906674,0.0006108652451075
2026-01-05 13:54:34.827,1.7676212748279025e+18,29.47590234375,0.0,-0.001221728149906674,0.0
2026-01-05 13:54:34.860,1.767621274868021e+18,29.51602099609375,-0.0006108652451075,-0.001221728149906674,0.0
2026-01-05 13:54:34.893,1.767621274908143e+18,29.55614306640625,-0.0012217304902151,-0.0018325957935303,0.0
2026-01-05 13:54:34.926,1.767621274948253e+18,29.5962529296875,-0.0012217304902151,-0.0018325957935303,0.0
2026-01-05 13:54:34.959,1.767621274988369e+18,29.63636889648437,-0.0012217304902151,-0.0018325957935303,0.0
2026-01-05 13:54:34.992,1.767621275008428e+18,29.656427978515623,-0.0018325957062187998,-0.0018325957935303,0.0
2026-01-05 13:54:35.025,1.7676212750284872e+18,29.67648706054688,-0.0018325957062187998,-0.0018325957935303,0.0
2026-01-05 13:54:35.058,1.7676212750686075e+18,29.716607421875,-0.0006108652451075,-0.0018325957935303,0.0006108652451075
2026-01-05 13:54:35.091,1.7676212751087342e+18,29.75673413085937,-0.0006108652451075,-0.0018325957935303,0.0006108652451075
2026-01-05 13:54:35.124,1.7676212751488476e+18,29.79684765625,-0.0006108652451075,-0.0021380272022743065,0.0006108652451075
2026-01-05 13:54:35.157,1.767621275188988e+18,29.83698779296875,2.3694121131269397e-09,-0.0021380272022743065,0.0006108652451075
2026-01-05 13:54:35.190,1.7676212752090465e+18,29.857046586592414,2.3694121131269397e-09,-0.0021380272022743065,0.0006108652451075
2026-01-05 13:54:35.223,1.7676212752291052e+18,29.877105224609377,2.3694121131269397e-09,-0.0018325957935303,-2.3694121131269397e-09
2026-01-05 13:54:35.256,1.7676212752692132e+18,29.917213134765625,0.0006108652451075,-0.0012217304902151,-0.0006108652451075
2026-01-05 13:54:35.289,1.7676212753093215e+18,29.957321533203125,0.0006108652451075,-0.0012217304902151,-0.0006108652451075
2026-01-05 13:54:35.322,1.7676212753494377e+18,29.997437744140623,0.0006108652451075,-0.0012217304902151,-0.0006108652451075
2026-01-05 13:54:35.355,1.7676212753695388e+18,30.017538818359377,-0.00152716311276885,-0.0012217304902151,-0.0006108652451075
2026-01-05 13:54:35.388,1.7676212753895575e+18,30.0375576171875,-0.00152716311276885,-0.0012217304902151,-0.0006108652451075
2026-01-05 13:54:35.421,1.7676212754397184e+18,30.087718505859375,-0.00152716311276885,-0.0012217304902151,-0.0006108652451075
2026-01-05 13:54:35.454,1.767621275469791e+18,30.117791015625,-0.0012217304902151,-0.0012217304902151,-0.0006108652451075
2026-01-05 13:54:35.487,1.7676212755099139e+18,30.157913818359376,-0.00152716311276885,-0.0012217304902151,-0.0006108652451075
2026-01-05 13:54:35.520,1.7676212755500337e+18,30.19803369140625,-0.0015271631418727,-0.0012217304902151,-0.0006108652451075
2026-01-05 13:54:35.553,1.7676212755700966e+18,30.218096557617187,-0.0015271631418727,-0.00061086524510755,-0.0006108652451075
2026-01-05 13:54:35.586,1.7676212755901594e+18,30.23815942382813,-0.0018325957935303,-0.0006108652451075,-0.0006108652451075
2026-01-05 13:54:35.619,1.767621275630286e+18,30.2782861328125,-0.0018325957935303,0.0,-0.0006108652451075
2026-01-05 13:54:35.652,1.7676212756704384e+18,30.3184384765625,-0.0018325957935303,0.0,-0.0006108652451075
2026-01-05 13:54:35.685,1.7676212757105592e+18,30.358559326171875,-0.0012217304902151,-0.0006108652451075,-0.0006108652451075
2026-01-05 13:54:35.718,1.7676212757506831e+18,30.39868310546875,-0.0012217304902151,-0.0006108652451075,-0.0012217304902151
2026-01-05 13:54:35.751,1.767621275770744e+18,30.418744018554687,-0.0003054326225538,0.0,-0.0012217304902151
2026-01-05 13:54:35.784,1.767621275790805e+18,30.438804931640625,-0.0003054326225538,0.0,-0.0012217304902151
2026-01-05 13:54:35.817,1.767621275830928e+18,30.478927978515625,0.0,0.0,-0.0012217304902151
2026-01-05 13:54:35.850,1.7676212758710484e+18,30.51904833984375,0.00030543262255375,0.0,-0.0012217304902151
2026-01-05 13:54:35.883,1.7676212759111578e+18,30.55915771484375,0.0,0.0,-0.00061086524510755
2026-01-05 13:54:35.916,1.7676212759312148e+18,30.579214721679687,0.0,0.0,0.0
2026-01-05 13:54:35.949,1.7676212759512717e+18,30.599271728515625,0.0,0.0,0.0
2026-01-05 13:54:35.982,1.767621276001445e+18,30.649445068359377,-0.0003054326225538,0.0,0.0
2026-01-05 13:54:36.015,1.7676212760315162e+18,30.67951611328125,-0.0003054326225538,-0.0006108652451075,0.0
2026-01-05 13:54:36.048,1.7676212760616307e+18,30.709630737304686,-0.000610860535387061,-0.00091629789676515,-0.00061086524510755
2026-01-05 13:54:36.081,1.7676212761117588e+18,30.7597587890625,-0.000610860535387061,-0.0018325957935303,-0.00061086524510755
2026-01-05 13:54:36.114,1.767621276131818e+18,30.779817915358812,-0.0003054326225538,-0.0018325957935303,-0.00061086524510755
2026-01-05 13:54:36.147,1.767621276151877e+18,30.799877197265623,-0.000610860535387061,-0.0018325957935303,-0.000610867614519663
2026-01-05 13:54:36.180,1.767621276202052e+18,30.85005224609375,-0.0012217305193189,-0.0012217305193189,-0.000610867614519663
2026-01-05 13:54:36.213,1.7676212762321254e+18,30.88012548828125,-0.0012217305193189,-0.0012217305193189,-0.00061086524510755
2026-01-05 13:54:36.246,1.767621276262241e+18,30.910240966796874,-1.4551900049536437e-11,-0.0012217305193189,-0.00061086524510755
2026-01-05 13:54:36.279,1.767621276287312e+18,30.93531176757812,-1.4551900049536437e-11,-0.0012217305193189,0.0
2026-01-05 13:54:36.312,1.7676212763123825e+18,30.96038256835937,0.0012217304902151,-0.0015271631564246,0.0
2026-01-05 13:54:36.345,1.7676212763524918e+18,31.00049169921875,0.0012217304902151,-0.0015271631564246,0.0
2026-01-05 13:54:36.378,1.7676212763926285e+18,31.04062841796875,0.0012217304902151,-0.0012217304902151,0.0
2026-01-05 13:54:36.411,1.7676212764327516e+18,31.080751708984376,0.0012217304902151,-0.0012217304902151,0.0
2026-01-05 13:54:36.444,1.7676212764728668e+18,31.12086669921875,0.0012217304902151,-0.0012217304902151,0.0
2026-01-05 13:54:36.477,1.7676212764929687e+18,31.14096875,-0.0006108652451075,-0.0012217304902151,0.0
2026-01-05 13:54:36.510,1.7676212765129882e+18,31.16098828125,-0.0006108652451075,0.0006108652451075,0.0
2026-01-05 13:54:36.543,1.7676212765531118e+18,31.20111181640625,0.0012217304902151,0.0006108652451075,0.0
2026-01-05 13:54:36.576,1.767621276593226e+18,31.24122607421875,0.0,-0.0006108652451075,0.0
2026-01-05 13:54:36.609,1.7676212766333338e+18,31.281333740234373,0.00030543380725980656,-0.0003054290684356303,0.0
2026-01-05 13:54:36.642,1.7676212766734487e+18,31.32144873046875,0.0006108652451075,-0.0003054290684356303,-0.0006108652451075
2026-01-05 13:54:36.675,1.7676212766935117e+18,31.341511796569925,0.00030543380725980656,-0.0006108652451075,-0.0006108652451075
2026-01-05 13:54:36.708,1.7676212767135747e+18,31.36157470703125,0.0,-0.0003054290684356303,-0.0006108652451075
2026-01-05 13:54:36.741,1.7676212767637407e+18,31.411740722656248,0.00030543380725980656,0.0,0.0006108652451075
2026-01-05 13:54:36.774,1.7676212767938063e+18,31.44180639648437,0.0006108652451075,0.0,0.0006108652451075
2026-01-05 13:54:36.807,1.7676212768339195e+18,31.48191943359375,0.0006108652451075,0.0,0.0006108652451075
2026-01-05 13:54:36.840,1.7676212768539756e+18,31.501975341796875,0.0006108652451075,0.0,0.0006108652451075
2026-01-05 13:54:36.873,1.7676212768740314e+18,31.52203125,0.0006108652451075,0.0,0.0006108652451075
2026-01-05 13:54:36.906,1.7676212769141514e+18,31.5621513671875,0.00030543262255375,0.0,0.0006108652451075
2026-01-05 13:54:36.939,1.767621276954263e+18,31.602262939453126,0.00030543262255375,0.0,0.0006108652451075
2026-01-05 13:54:36.972,1.7676212769843702e+18,31.632370361328125,0.00030543262255375,0.0,0.0006108652451075
2026-01-05 13:54:37.005,1.7676212770345085e+18,31.682508544921877,0.00091629789676515,0.00030543265165760007,0.0006108652451075
2026-01-05 13:54:37.038,1.7676212770595889e+18,31.707588781362382,0.00091629789676515,0.00030543265165760007,0.0006108652451075
2026-01-05 13:54:37.071,1.767621277084669e+18,31.732668823242186,0.00091629789676515,0.00045814835602957823,0.0006108652451075
2026-01-05 13:54:37.104,1.7676212771147315e+18,31.7627314453125,0.0006108652451075,0.00045814835602957823,0.0006108652451075
2026-01-05 13:54:37.137,1.7676212771548398e+18,31.80283984375,0.0006108652451075,0.00030543265165760007,0.0009162978676613
2026-01-05 13:54:37.170,1.7676212771949524e+18,31.842952392578123,0.0,0.0006108652451075,0.0012217304902151
2026-01-05 13:54:37.203,1.76762127722506e+18,31.873060180664062,0.0,0.0006108652451075,0.0012217304902151
2026-01-05 13:54:37.236,1.7676212772551695e+18,31.90316943359375,0.0006108652451075,-0.00030543262255375,0.0012217304902151
2026-01-05 13:54:37.269,1.7676212772852367e+18,31.93323669433594,0.0006108652451075,-0.0006108652451075,0.0009162978676613
2026-01-05 13:54:37.302,1.767621277315304e+18,31.963303955078125,0.0,-0.0006108652451075,0.0012217304902151
2026-01-05 13:54:37.335,1.7676212773554104e+18,32.00341040039063,-0.00152716311276885,-0.0006108652451075,0.0012217304902151
2026-01-05 13:54:37.368,1.7676212773955272e+18,32.04352709960938,-0.0018325957935303,-0.0006108652451075,0.0012217304902151
2026-01-05 13:54:37.401,1.767621277415583e+18,32.06358288574219,-0.0018325957935303,-0.0006108652451075499,0.0012217304902151
2026-01-05 13:54:37.434,1.7676212774356388e+18,32.083638671875,-0.0018325957935303,-0.0006108652451075499,0.0012217304902151
2026-01-05 13:54:37.467,1.76762127747575e+18,32.12375,-0.0012217304902151,-0.0006108652451075499,0.0006108652451075
2026-01-05 13:54:37.500,1.767621277515869e+18,32.163868896484374,-0.0012217304902151,-0.0006108652451075,0.0006108652451075
2026-01-05 13:54:37.533,1.7676212775559805e+18,32.20398046875,-0.0012217304902151,-0.0006108652451075,0.0006108652451075
2026-01-05 13:54:37.566,1.7676212775960822e+18,32.244082275390625,-0.0012217304902151,0.0006108652742114,0.0012217304902151
2026-01-05 13:54:37.599,1.7676212776211679e+18,32.26916796875,-0.0012217304902151,0.0006108652742114,0.0012217304902151
2026-01-05 13:54:37.632,1.7676212776462536e+18,32.29425366210937,-0.0012217304902151,0.0006108652742114,0.0012217304902151
2026-01-05 13:54:37.665,1.76762127767632e+18,32.32432006835938,-0.0006108652451075,0.0,0.0012217304902151
2026-01-05 13:54:37.698,1.7676212777164378e+18,32.36443774414062,-0.0006108652451075,-0.0006108652451075,0.0
2026-01-05 13:54:37.731,1.7676212777565555e+18,32.40455541992188,-0.0003054314378476935,-0.0006108652451075,0.0
2026-01-05 13:54:37.764,1.7676212777966684e+18,32.44466845703125,-0.0003054314378476935,-0.0006108652451075,0.000610860535387061
2026-01-05 13:54:37.797,1.7676212778167235e+18,32.46472355502288,-0.0003054314378476935,0.0,0.0012217304902151
2026-01-05 13:54:37.830,1.7676212778367788e+18,32.48477880859375,-0.0003054314378476935,0.0,0.0012217304902151
2026-01-05 13:54:37.863,1.7676212778768968e+18,32.52489672851563,-0.0006108652451075,0.0,0.0012217304902151
2026-01-05 13:54:37.896,1.767621277917018e+18,32.56501806640625,-0.0012217304902151,0.0,0.0012217304902151
2026-01-05 13:54:37.929,1.7676212779571364e+18,32.605136474609374,-0.0018325933659105369,0.0,0.0012217304902151
2026-01-05 13:54:37.962,1.7676212779771988e+18,32.625198896791346,-0.0018325933659105369,0.0,0.000610862875695437
2026-01-05 13:54:37.995,1.7676212779972616e+18,32.64526147460938,-0.0012217304902151,0.0,0.000610862875695437
2026-01-05 13:54:38.028,1.767621278037378e+18,32.6853779296875,-0.0012217304902151,0.0,0.000610862875695437
2026-01-05 13:54:38.061,1.7676212780774917e+18,32.72549169921875,-0.0012217304902151,0.0,0.0006108652451075
2026-01-05 13:54:38.094,1.7676212781176143e+18,32.7656142578125,-0.0006108652451075,-0.0006108652451075,0.0006108652451075
2026-01-05 13:54:38.127,1.7676212781577326e+18,32.80573266601562,0.0,-0.0006108652451075,0.0012217304902151
2026-01-05 13:54:38.160,1.767621278177846e+18,32.82584594726563,0.0,-0.0006108652451075,0.0006108652451075
2026-01-05 13:54:38.193,1.767621278197832e+18,32.84583203125,-0.0006108652451075,0.0006108652451075,0.0012217304902151
2026-01-05 13:54:38.226,1.76762127823795e+18,32.885949951171874,-0.0006108652451075,0.0006108652451075,0.0012217304902151
2026-01-05 13:54:38.259,1.7676212782780626e+18,32.9260625,-0.0012217304902151,0.0006108652451075,0.0012217304902151
2026-01-05 13:54:38.292,1.767621278318169e+18,32.966169189453126,-0.0012217304902151,0.0006108652451075,-0.0006108652451075
2026-01-05 13:54:38.325,1.7676212783382692e+18,32.98626928710937,-0.0012217304902151,0.0,-0.0006108652451075
2026-01-05 13:54:38.358,1.7676212783582876e+18,33.00628759765625,-0.0012217304902151,0.0,-0.0006108652451075
2026-01-05 13:54:38.391,1.7676212783984008e+18,33.04640087890625,-0.0006108652451075,0.0,-0.0006108652451075
2026-01-05 13:54:38.424,1.7676212784385114e+18,33.086511474609374,0.0006108652451075,-0.0006108652451075,-0.0006108652451075
2026-01-05 13:54:38.457,1.7676212784786324e+18,33.126632568359376,0.00030543143784769343,-0.0006108652451075,-0.0006108652451075
2026-01-05 13:54:38.490,1.7676212785187267e+18,33.1667265625,0.00030543143784769343,-0.0006108652451075,-0.0006108652451075
2026-01-05 13:54:38.523,1.7676212785387894e+18,33.1867893844596,0.00030543143784769343,-0.0012217281499066741,-0.0006108652451075
2026-01-05 13:54:38.556,1.767621278558852e+18,33.20685205078125,0.00030543143784769343,-0.0012217281499066741,-0.0006108652451075
2026-01-05 13:54:38.589,1.7676212785989588e+18,33.246958740234376,0.0,-0.0006108652451075,-0.0006108652451075
2026-01-05 13:54:38.622,1.7676212786390684e+18,33.287068359375,0.0,-0.0006108652451075,-0.0006108652451075
2026-01-05 13:54:38.655,1.7676212786791798e+18,33.3271796875,0.0012217304902151,-0.0006108652451075,0.00045814891927875
2026-01-05 13:54:38.688,1.7676212787092838e+18,33.35728381347656,0.0015271631418727,-0.0006108652451075,0.0
2026-01-05 13:54:38.721,1.767621278734336e+18,33.38233587646484,0.0015271631418727,0.0,0.00045814891927875
2026-01-05 13:54:38.754,1.767621278759388e+18,33.40738793945312,0.0015271631418727,0.0,0.0009162978385575
2026-01-05 13:54:38.787,1.767621278799525e+18,33.447525146484374,0.0,-0.0006108652451075,0.0012217304902151
2026-01-05 13:54:38.820,1.767621278839629e+18,33.487629150390624,-0.0006108652451075,-0.0006108652451075,0.0012217304902151
2026-01-05 13:54:38.853,1.7676212788797368e+18,33.52773681640625,-0.0006108652451075,-0.0006108652451075,0.0012217304902151
2026-01-05 13:54:38.886,1.767621278899826e+18,33.54782592773437,-0.0012217304902151,-0.0006108652451075,0.0006108652451075
2026-01-05 13:54:38.919,1.7676212789298895e+18,33.57788952636719,-0.0012217304902151,0.0,0.0006108652451075
2026-01-05 13:54:38.952,1.7676212789599473e+18,33.607947265625,-0.0006108652451075,0.0,0.0006108652451075
2026-01-05 13:54:38.985,1.767621279000058e+18,33.64805810546875,-0.0012217304902151,0.0,-0.0009162978676613499
2026-01-05 13:54:39.018,1.767621279040152e+18,33.688152099609376,-0.0012217304902151,0.0,-0.0010690141789381998
2026-01-05 13:54:39.051,1.7676212790802575e+18,33.728257568359375,-0.0004581489338306749,0.0,-0.0010690141789381998
2026-01-05 13:54:39.084,1.767621279105338e+18,33.75333807373047,0.0,-0.00076358155638445,-0.0012217304902151
2026-01-05 13:54:39.117,1.7676212791304187e+18,33.77841857910156,0.0,-0.00076358155638445,-0.0010690141789381998
2026-01-05 13:54:39.150,1.767621279160486e+18,33.80848583984375,0.00030543262255375,-0.0006108652451075,-0.0006108652451075
2026-01-05 13:54:39.183,1.7676212792006024e+18,33.848602294921875,0.00030543262255375,-0.0006108652451075,-0.0006108652451075
2026-01-05 13:54:39.216,1.7676212792407145e+18,33.88871459960937,0.0,-0.0006108652451075,-0.0006108652451075
2026-01-05 13:54:39.249,1.767621279280825e+18,33.9288251953125,0.0012217304902151,-0.0006108652451075,-0.0006108652451075
2026-01-05 13:54:39.282,1.7676212793009247e+18,33.94892456054688,0.0012217304902151,-0.0006108652451075,-0.0006108652451075
2026-01-05 13:54:39.315,1.767621279330989e+18,33.97898901367188,-0.0006108652451075,-0.0006108652451075,-0.0006108652451075
2026-01-05 13:54:39.348,1.7676212793610557e+18,34.0090556640625,0.0012217304902151,-0.0006108652451075,-0.0006108652451075
2026-01-05 13:54:39.381,1.767621279401177e+18,34.049177001953126,0.00152716308366505,-0.0006108652451075,-0.0006108652451075
2026-01-05 13:54:39.414,1.7676212794412943e+18,34.08929443359375,0.0018325957935303,-0.0006108652451075,-0.0006108652451075
2026-01-05 13:54:39.447,1.7676212794613576e+18,34.10935754394531,0.0018325957935303,-0.0006108652451075,-0.0006108652451075
2026-01-05 13:54:39.480,1.7676212794814205e+18,34.12942065429687,0.0018325957935303,0.0,-0.00030543262255375
2026-01-05 13:54:39.513,1.7676212795215293e+18,34.169529296875,0.0006108652451075,0.0,0.0
2026-01-05 13:54:39.546,1.767621279561642e+18,34.20964208984375,0.0,-0.0006108652451075,0.0012217304902151
2026-01-05 13:54:39.579,1.7676212796017452e+18,34.2497451171875,-0.0001527180883359598,-0.0009163014508834326,0.0012217304902151
2026-01-05 13:54:39.612,1.7676212796418532e+18,34.289853271484375,-0.0001527180883359598,0.0,0.0012217304902151
2026-01-05 13:54:39.645,1.7676212796669368e+18,34.314936792354594,-0.0001527180883359598,-0.0009163014508834326,0.0012217304902151
2026-01-05 13:54:39.678,1.7676212796920205e+18,34.3400205078125,-0.0001527180883359598,-0.0009163014508834326,0.0012217304902151
2026-01-05 13:54:39.711,1.7676212797220877e+18,34.37008764648437,0.00030543262255375,-0.0006108652451075,0.0004581519101476599
2026-01-05 13:54:39.744,1.7676212797622298e+18,34.41022973632813,0.00030543262255375,-0.0006108652451075,0.0
2026-01-05 13:54:39.777,1.7676212798023424e+18,34.45034228515625,-0.0021380272022743065,-0.0006108652451075,0.0
2026-01-05 13:54:39.810,1.76762127984246e+18,34.4904599609375,-0.0018325957935303,-0.0006108652451075,-0.00030543380725980656
2026-01-05 13:54:39.843,1.7676212798625216e+18,34.51052168426003,-0.0021380272022743065,0.0,-0.00030543380725980656
2026-01-05 13:54:39.876,1.7676212798825833e+18,34.530583251953125,-0.0021380272022743065,4.738824226253879e-09,0.0
2026-01-05 13:54:39.909,1.767621279922703e+18,34.570703125,-0.0018325957935303,4.738824226253879e-09,0.0012217304902151
2026-01-05 13:54:39.942,1.767621279962823e+18,34.61082299804688,0.0,0.0,0.0024434609804302
2026-01-05 13:54:39.975,1.7676212800029276e+18,34.650927734375,0.00030543262255375,0.0,0.0024434609804302
2026-01-05 13:54:40.008,1.767621280022981e+18,34.670981079101566,0.0006108652451075,0.0,0.0024434609804302
2026-01-05 13:54:40.041,1.7676212800430344e+18,34.69103442382813,0.00030543262255375,0.0,0.0024434609804302
2026-01-05 13:54:40.074,1.767621280083154e+18,34.73115380859375,0.00030543262255375,-0.00030543262255375,0.0024434609804302
2026-01-05 13:54:40.107,1.7676212801232707e+18,34.771270751953125,0.0,-0.0006108652451075,0.0012217304902151
2026-01-05 13:54:40.140,1.7676212801633795e+18,34.81137939453125,-0.0006108628756954368,-0.0006108652451075,0.0012217304902151
