datetime,time,seconds_elapsed,z,y,x
2026-01-05 13:54:05.457,1.7676212454808655e+18,0.128865478515625,0.0288629531860351,-0.006253727536499572,0.0004453882575035
2026-01-05 13:54:05.490,1.767621245500921e+18,0.148921142578125,0.028855562181414978,-0.0089888265356421,-0.002270950935781024
2026-01-05 13:54:05.523,1.7676212455410245e+18,0.1890244140625,0.0288629531860351,-0.006253727536499572,-0.004987290129065548
2026-01-05 13:54:05.556,1.767621245581138e+18,0.229137939453125,0.0288629531860351,-0.006253727536499572,-0.005732867587140651
2026-01-05 13:54:05.589,1.7676212456212526e+18,0.269252685546875,0.0289287567138671,-0.005571611225605,-0.004987290129065548
2026-01-05 13:54:05.622,1.7676212456413117e+18,0.28931172331211236,0.0312480926513671,-0.005571611225605,-0.004987290129065548
2026-01-05 13:54:05.655,1.7676212456613706e+18,0.30937060546875,0.0312480926513671,-0.00282322848367003,-0.005732867587140651
2026-01-05 13:54:05.688,1.7676212457014935e+18,0.349493408203125,0.0312824249267578,0.011547735613695206,-0.005732867587140651
2026-01-05 13:54:05.721,1.767621245731587e+18,0.3795869140625,0.0312824249267578,0.012443767050293084,-0.0013364716432988748
2026-01-05 13:54:05.754,1.7676212457817341e+18,0.429734130859375,0.0312824249267578,0.012443767050293084,-0.008360404543674298
2026-01-05 13:54:05.787,1.7676212458017923e+18,0.4497921920583245,0.0312824249267578,0.012443767050293084,-0.013819593004882351
2026-01-05 13:54:05.820,1.76762124582185e+18,0.46985009765625,0.0312824249267578,0.0016702078282833,-0.0125613212585449
2026-01-05 13:54:05.853,1.7676212458619604e+18,0.50996044921875,0.0288925170898437,-0.006527684495983954,-0.0125613212585449
2026-01-05 13:54:05.886,1.7676212459020695e+18,0.550069580078125,0.0288925170898437,-0.006527684495983954,-0.0161278489977121
2026-01-05 13:54:05.919,1.7676212459421852e+18,0.590185302734375,0.0288925170898437,-0.006527684495983954,-0.0196943767368793
2026-01-05 13:54:05.952,1.767621245982308e+18,0.63030810546875,0.0289068222045898,-0.0147256404161453,-0.0161278489977121
2026-01-05 13:54:05.985,1.7676212460023665e+18,0.650366455078125,0.0289068222045898,-0.004061846062540951,-0.0161278489977121
2026-01-05 13:54:06.018,1.7676212460224248e+18,0.6704248046875,0.0313138961791992,0.0038235113024711,-0.0121864788234233
2026-01-05 13:54:06.051,1.7676212460625398e+18,0.710539794921875,0.034894943237304646,0.0038235113024711,-0.006041616581309192
2026-01-05 13:54:06.084,1.7676212461026363e+18,0.75063623046875,0.03371521097271347,-0.0058347284793853,0.0001031979918479
2026-01-05 13:54:06.117,1.767621246142755e+18,0.790755126953125,0.0313138961791992,-0.0015293862670660002,0.004521066695669375
2026-01-05 13:54:06.150,1.7676212461828762e+18,0.830876220703125,0.0313138961791992,-0.0015293862670660002,0.004521066695669375
2026-01-05 13:54:06.183,1.7676212462029386e+18,0.8509385986328124,0.0289316177368164,-0.0026105716824531,0.004521066695669375
2026-01-05 13:54:06.216,1.767621246223001e+18,0.8710009765625,0.0241527557373046,-0.0026105716824531,-0.00926682261707864
2026-01-05 13:54:06.249,1.7676212462631235e+18,0.91112353515625,0.0241527557373046,-0.0026105716824531,-0.00926682261707864
2026-01-05 13:54:06.282,1.76762124630324e+18,0.951239990234375,0.0289316177368164,-0.008758577142304453,-0.00926682261707864
2026-01-05 13:54:06.315,1.7676212463433623e+18,0.9913623046875,0.02775955200195305,-0.008758577142304453,-0.0056016556918621
2026-01-05 13:54:06.348,1.7676212463684426e+18,1.016442626953125,0.0313520431518554,-0.014906630295866417,-0.004058940336108201
2026-01-05 13:54:06.381,1.767621246393523e+18,1.0415229492187499,0.0313520431518554,-0.02105463575571777,-0.0025162249803543004
2026-01-05 13:54:06.414,1.767621246423624e+18,1.0716240234375,0.0301599502563476,-0.02105463575571777,-0.0025162249803543004
2026-01-05 13:54:06.447,1.767621246463749e+18,1.1117490234375,0.0289678573608398,0.0010662525892257,-0.0012611908541777244
2026-01-05 13:54:06.480,1.7676212465038671e+18,1.1518671875,0.0301599502563476,-0.0272611062973737,0.0009620957881997889
2026-01-05 13:54:06.513,1.7676212465439854e+18,1.1919853515625,0.0301599502563476,-0.0278527233749628,0.0021128442731184515
2026-01-05 13:54:06.546,1.7676212465640453e+18,1.21204541015625,0.0289678573608398,-0.025450956607965092,0.0009911768138408
2026-01-05 13:54:06.579,1.7676212465841108e+18,1.23211083984375,0.0241947174072265,-0.025450956607965092,0.0021128442731184515
2026-01-05 13:54:06.612,1.7676212466242301e+18,1.272230224609375,0.0241947174072265,-0.0261830873787403,0.0054869055747985
2026-01-05 13:54:06.645,1.7676212466643548e+18,1.312354736328125,0.02181339263916015,-0.025450956607965092,0.00638996623456475
2026-01-05 13:54:06.678,1.767621246704478e+18,1.35247802734375,0.02181339263916015,-0.0230153612792491,0.00638996623456475
2026-01-05 13:54:06.711,1.7676212467245373e+18,1.3725372314453126,0.02181339263916015,-0.0133874826133251,0.00638996623456475
2026-01-05 13:54:06.744,1.7676212467445965e+18,1.392596435546875,0.0218219757080078,-0.0133874826133251,-0.0032335929572582
2026-01-05 13:54:06.777,1.7676212467847137e+18,1.432713623046875,0.022783944752198117,-0.00835056975483895,-0.007563229650259
2026-01-05 13:54:06.810,1.7676212468248264e+18,1.472826416015625,0.023745921258950642,-0.0133874826133251,-0.007563229650259
2026-01-05 13:54:06.843,1.7676212468649464e+18,1.512946533203125,0.02326493300557438,-0.015897912281568546,-0.007563229650259
2026-01-05 13:54:06.876,1.7676212469050744e+18,1.553074462890625,0.023745921258950642,-0.015897912281568546,-0.0019980849079388324
2026-01-05 13:54:06.909,1.76762124692513e+18,1.5731299270917702,0.0242269057810458,-0.0076280571520328,-0.0019980849079388324
2026-01-05 13:54:06.942,1.7676212469451855e+18,1.593185546875,0.02470789030314096,-0.015897912281568546,0.0069872327148914
2026-01-05 13:54:06.975,1.7676212469853025e+18,1.633302490234375,,-0.0097892507910728,0.00686130113899705
2026-01-05 13:54:07.008,1.7676212470254167e+18,1.673416748046875,,-0.0076280571520328,0.003339409828186
2026-01-05 13:54:07.041,1.7676212470555018e+18,1.703501708984375,0.0314416885375976,-0.0096773281693458,0.003339409828186
2026-01-05 13:54:07.074,1.7676212471056558e+18,1.75365576171875,0.0278520584106445,-0.0097892507910728,0.003339409828186
2026-01-05 13:54:07.107,1.7676212471257116e+18,1.773711669921875,0.02545976174372793,-0.0096773281693458,0.0013181753456592
2026-01-05 13:54:07.140,1.7676212471457766e+18,1.793776611328125,0.026058433117957715,-0.0096773281693458,0.0010173425571208868
2026-01-05 13:54:07.173,1.7676212471959252e+18,1.8439252929687502,0.02545976174372793,-0.0183770433068275,0.0007165074348449
2026-01-05 13:54:07.206,1.767621247226021e+18,1.874021240234375,0.02545976174372793,-0.0183770433068275,0.0010173425571208868
2026-01-05 13:54:07.239,1.767621247266149e+18,1.914149169921875,0.0266571044921875,-0.016158500686287852,0.0010173425571208868
2026-01-05 13:54:07.272,1.7676212472862126e+18,1.9342127685546875,0.0266604423522949,-0.01772021315991875,0.0007165074348449
2026-01-05 13:54:07.305,1.7676212473062764e+18,1.9542763671875,0.028252597489176613,-0.016158500686287852,-0.0039641726762055995
2026-01-05 13:54:07.338,1.7676212473564314e+18,2.0044311523437504,0.028252597489176613,-0.01403284445405005,0.004305330105125925
2026-01-05 13:54:07.371,1.7676212473865272e+18,2.03452734375,0.029052019119262674,-0.01403284445405005,0.002198964357376
2026-01-05 13:54:07.404,1.7676212474266427e+18,2.074642578125,0.028252597489176613,-0.015462624921128418,-0.0039641726762055995
2026-01-05 13:54:07.437,1.7676212474667543e+18,2.11475439453125,0.02665376663208005,-0.01403284445405005,-0.006350272899306911
2026-01-05 13:54:07.470,1.7676212474868106e+18,2.1348106246684098,0.0218572616577148,-0.015462624921128418,0.002198964357376
2026-01-05 13:54:07.503,1.7676212475068667e+18,2.15486669921875,0.02161464728804165,-0.015462624921128418,-0.0010682344436645
2026-01-05 13:54:07.536,1.7676212475469844e+18,2.194984375,0.021493340103205076,-0.0134484879672527,-0.006350272899306911
2026-01-05 13:54:07.569,1.767621247587114e+18,2.235114013671875,0.021493340103205076,-0.0134484879672527,-0.0010682344436645
2026-01-05 13:54:07.602,1.7676212476272384e+18,2.27523828125,0.021250725733531928,-0.016624366144532058,0.0082853641360998
2026-01-05 13:54:07.635,1.767621247667362e+18,2.315362060546875,0.021250725733531928,-0.0134484879672527,0.0080696456134319
2026-01-05 13:54:07.668,1.7676212476874235e+18,2.335423583984375,0.021484280197199227,-0.0134484879672527,0.0080696456134319
2026-01-05 13:54:07.701,1.7676212477074852e+18,2.355485107421875,0.022692480728534976,-0.0155974794179201,0.0080696456134319
2026-01-05 13:54:07.734,1.7676212477476042e+18,2.395604248046875,0.023545819611366852,-0.0155974794179201,0.0039602387696504
2026-01-05 13:54:07.767,1.7676212477877284e+18,2.435728271484375,0.02439915187439621,-0.0155974794179201,0.0039602387696504
2026-01-05 13:54:07.800,1.7676212478278502e+18,2.475850341796875,0.02525248413742557,-0.0155974794179201,0.0019008815288543
2026-01-05 13:54:07.833,1.767621247847906e+18,2.495906005859375,0.02610581640045493,-0.0198738798499107,0.0039602387696504
2026-01-05 13:54:07.866,1.7676212478679754e+18,2.515975341796875,0.030372484335404244,-0.0198738798499107,0.0039602387696504
2026-01-05 13:54:07.899,1.7676212479081037e+18,2.556103759765625,0.03208864174066122,-0.0194605886936187,-0.0007016658782959002
2026-01-05 13:54:07.932,1.7676212479482168e+18,2.596216796875,0.030391463473998247,-0.00848208740353575,-0.0022830683737992997
2026-01-05 13:54:07.965,1.7676212479883282e+18,2.636328125,0.02869427204132076,-0.0194605886936187,-0.0007016658782959002
2026-01-05 13:54:07.998,1.767621248018415e+18,2.6664151611328126,0.030391463473998247,-0.0194605886936187,-0.0007016658782959002
2026-01-05 13:54:08.031,1.7676212480485066e+18,2.696506591796875,0.026997080608643274,-0.020868605002760797,0.0046498663723468
2026-01-05 13:54:08.064,1.7676212480785981e+18,2.726598022460937,0.026997080608643274,-0.020868605002760797,0.0046498663723468
2026-01-05 13:54:08.097,1.7676212481086963e+18,2.7566962890625,0.0265922546386718,-0.020868605002760797,0.0046498663723468
2026-01-05 13:54:08.130,1.7676212481488248e+18,2.796824951171875,0.0265922546386718,-0.014444406138920382,-0.0001821890473365
2026-01-05 13:54:08.163,1.7676212481789169e+18,2.826916748046875,0.026585578918457,-0.014444406138920382,-0.0007543787360191
2026-01-05 13:54:08.196,1.767621248209006e+18,2.857006103515625,0.026585578918457,-0.0114014782011508,-0.0007543787360191
2026-01-05 13:54:08.229,1.7676212482290716e+18,2.877071533203125,0.026585578918457,-0.0114014782011508,-0.002972777581049353
2026-01-05 13:54:08.262,1.7676212482792238e+18,2.927223876953125,0.026585578918457,-0.0148873403668403,-0.0032647624611854
2026-01-05 13:54:08.295,1.7676212483093228e+18,2.95732275390625,0.026585578918457,-0.0148873403668403,-0.0032647624611854
2026-01-05 13:54:08.328,1.767621248339411e+18,2.9874110107421874,0.0241785049438476,-0.0065892376005649,-0.0032647624611854
2026-01-05 13:54:08.361,1.7676212483895588e+18,3.037558837890625,0.0241737365722656,-0.0087432377040386,-0.0032647624611854
2026-01-05 13:54:08.394,1.7676212484096077e+18,3.057607666015625,0.0241737365722656,-0.0087432377040386,-0.0032647624611854
2026-01-05 13:54:08.427,1.767621248429672e+18,3.077671875,0.0241737365722656,-0.0087432377040386,-0.0007126294076442
2026-01-05 13:54:08.460,1.7676212484798044e+18,3.1278043212890623,0.0241651535034179,-0.0107967145740985,-0.0007126294076442
2026-01-05 13:54:08.493,1.76762124850989e+18,3.15789013671875,0.025364642027412353,-0.0107967145740985,-0.0007126294076442
2026-01-05 13:54:08.526,1.7676212485500065e+18,3.198006591796875,0.025364642027412353,-0.0107967145740985,-0.0007126294076442
2026-01-05 13:54:08.559,1.7676212485901258e+18,3.238125732421875,0.0241651535034179,-0.0034235343337059,0.001973308622837
2026-01-05 13:54:08.592,1.7676212486101832e+18,3.2581829833984375,0.0241651535034179,-0.0034235343337059,0.001973308622837
2026-01-05 13:54:08.625,1.7676212486302403e+18,3.278240234375,0.0241718292236328,-0.0034235343337059,0.001973308622837
2026-01-05 13:54:08.658,1.7676212486703552e+18,3.318355224609375,0.0223748683929443,-0.0077686533331871,0.0016169995069503
2026-01-05 13:54:08.691,1.7676212487104924e+18,3.358492431640625,0.0241718292236328,-0.0080672428011894,-0.0006406791508197
2026-01-05 13:54:08.724,1.7676212487506045e+18,3.3986044921875,0.026572208908579385,-0.0141146406531333,-0.0006406791508197
2026-01-05 13:54:08.757,1.7676212487706627e+18,3.41866259765625,0.026572208908579385,-0.0099807009100914,-0.0006406791508197
2026-01-05 13:54:08.790,1.767621248800758e+18,3.4487580566406253,0.026572208908579385,-0.0099807009100914,-0.0055284984409809
2026-01-05 13:54:08.823,1.7676212488308534e+18,3.478853271484375,0.0265731811523437,-0.0080672428011894,-0.0055284984409809
2026-01-05 13:54:08.856,1.767621248870967e+18,3.518967041015625,0.03135967254638665,-0.0080637037754058,-0.0103363692760467
2026-01-05 13:54:08.889,1.7676212489111457e+18,3.559145751953125,0.0313587188720703,-0.0080637037754058,-0.0103363692760467
2026-01-05 13:54:08.922,1.767621248951253e+18,3.5992529296875,0.0337533950805664,-0.0080637037754058,-0.0125774480402469
2026-01-05 13:54:08.955,1.7676212489713083e+18,3.619308349609375,0.0337533950805664,-0.0127049125730991,-0.0103363692760467
2026-01-05 13:54:08.988,1.7676212489913733e+18,3.639373291015625,0.0313587188720703,-0.0170181430876255,-0.0058113373816013
2026-01-05 13:54:09.021,1.7676212490314867e+18,3.67948681640625,0.0241727828979492,-0.0170181430876255,0.001289140433073
2026-01-05 13:54:09.054,1.7676212490716045e+18,3.7196044921875,0.0241727828979492,-0.0170181430876255,-0.0010012835264205
2026-01-05 13:54:09.087,1.7676212491117225e+18,3.759722412109375,0.0241727828979492,-0.0113601214252412,-0.0010012835264205
2026-01-05 13:54:09.120,1.7676212491518863e+18,3.79988623046875,0.0337553024291992,-0.0113601214252412,-0.0010012835264205
2026-01-05 13:54:09.153,1.7676212491769513e+18,3.8249513549804686,0.0337553024291992,-0.0113601214252412,-0.00179770495742555
2026-01-05 13:54:09.186,1.7676212492020165e+18,3.8500164794921874,0.0337553024291992,-0.0113601214252412,-0.00179770495742555
2026-01-05 13:54:09.219,1.7676212492321021e+18,3.88010205078125,0.0313577651977539,-0.01501926686614745,-0.00179770495742555
2026-01-05 13:54:09.252,1.7676212492722204e+18,3.920220458984375,0.0265693664550781,-0.0151152089238166,-0.0012200586497783
2026-01-05 13:54:09.285,1.767621249302302e+18,3.950302001953125,0.0265693664550781,-0.01501926686614745,-0.0012200586497783
2026-01-05 13:54:09.318,1.7676212493323845e+18,3.980384521484375,0.0241756439208984,-0.014891792088747,-0.0009634084999561
2026-01-05 13:54:09.351,1.7676212493624732e+18,4.010473266601562,0.0265693664550781,-0.014891792088747,-0.0012200586497783
2026-01-05 13:54:09.384,1.767621249392562e+18,4.04056201171875,0.0337476730346679,-0.014891792088747,-0.0012200586497783
2026-01-05 13:54:09.417,1.7676212494326784e+18,4.080678466796875,0.0337476730346679,-0.0127600915729999,-0.0036048479378223506
2026-01-05 13:54:09.450,1.767621249472795e+18,4.120794921875,0.0337476730346679,-0.014891792088747,-0.003937505185604
2026-01-05 13:54:09.483,1.767621249512905e+18,4.160905029296875,0.0337476730346679,-0.0127600915729999,-0.003937505185604
2026-01-05 13:54:09.516,1.7676212495329582e+18,4.180958251953125,0.028961658477783148,-0.0149604752659797,-0.0043966621160507
2026-01-05 13:54:09.549,1.7676212495530173e+18,4.201017333984375,0.028961658477783148,-0.0176844634115695,-0.0066471137106418
2026-01-05 13:54:09.582,1.7676212496031478e+18,4.251147827148438,0.028961658477783148,-0.0176844634115695,-0.0063699483871459
2026-01-05 13:54:09.615,1.7676212496332326e+18,4.281232666015625,0.028961658477783148,-0.0176844634115695,-0.004819819703698099
2026-01-05 13:54:09.648,1.7676212496733458e+18,4.321345703125,0.028961658477783148,-0.0176844634115695,-0.0063699483871459
2026-01-05 13:54:09.681,1.767621249703438e+18,4.3514379882812495,0.028366334252083826,-0.01718407090831945,-0.008970834046371508
2026-01-05 13:54:09.714,1.7676212497285166e+18,4.3765166263579065,0.0265703201293945,-0.01718407090831945,-0.0063699483871459
2026-01-05 13:54:09.747,1.7676212497535954e+18,4.401595458984375,0.028366334252083826,-0.01718407090831945,-0.0058815889060497
2026-01-05 13:54:09.780,1.7676212497937108e+18,4.4417109375,0.027168019259859996,-0.0128283090889453,-0.0058815889060497
2026-01-05 13:54:09.813,1.767621249833818e+18,4.481818115234375,0.0265703201293945,-0.0075991339981555,-0.0054620169103145
2026-01-05 13:54:09.846,1.7676212498739297e+18,4.5219296875,0.027168019259859996,-0.0026909448206424,0.0005838591605424994
2026-01-05 13:54:09.879,1.767621249893987e+18,4.541987060546875,0.0289669036865234,-0.0026909448206424,0.0013587027788162
2026-01-05 13:54:09.912,1.7676212499140444e+18,4.56204443359375,0.0289669036865234,-0.0074327327311038,0.0005838591605424994
2026-01-05 13:54:09.945,1.7676212499541624e+18,4.602162353515625,0.0313596725463867,-0.0074327327311038,0.0005838591605424994
2026-01-05 13:54:09.978,1.7676212499942807e+18,4.64228076171875,0.03375244140625,-0.01510216668248175,0.0001849308609962
2026-01-05 13:54:10.011,1.7676212500243666e+18,4.67236669921875,0.03375244140625,-0.015261161801403668,-0.0004040300846099
2026-01-05 13:54:10.044,1.7676212500745219e+18,4.72252197265625,0.03375244140625,-0.01510216668248175,-0.0008118337473366211
2026-01-05 13:54:10.077,1.7676212500945705e+18,4.742570600946411,0.03136588999704164,-0.01510216668248175,-0.0008118337473366211
2026-01-05 13:54:10.110,1.7676212501146194e+18,4.762619384765625,0.03136588999704164,-0.0140853077173233,0.0001849308609962
2026-01-05 13:54:10.143,1.7676212501547305e+18,4.80273046875,0.03136588999704164,-0.0140853077173233,-0.0008118337473366211
2026-01-05 13:54:10.176,1.7676212501948488e+18,4.842848876953125,0.0313777923583984,-0.0140853077173233,-0.0018086060881614
2026-01-05 13:54:10.209,1.7676212502349642e+18,4.882964111328125,0.03257989417152149,-0.0167325809597969,0.0012505780905484997
2026-01-05 13:54:10.242,1.767621250260038e+18,4.9080379276461406,0.0337705612182617,-0.0167325809597969,-0.002132199704647
2026-01-05 13:54:10.275,1.7676212502851118e+18,4.9331119384765625,0.03257989417152149,-0.0167325809597969,-0.002132199704647
2026-01-05 13:54:10.308,1.7676212503152018e+18,4.963201904296875,0.03378200531005855,-0.021320325222656752,0.0012505780905484997
2026-01-05 13:54:10.341,1.7676212503553213e+18,5.0033212890625,0.0337839126586914,-0.0093466863036155,0.0012505780905484997
2026-01-05 13:54:10.374,1.7676212503954322e+18,5.04343212890625,0.03737878799438475,-0.0093466863036155,-0.002132199704647
2026-01-05 13:54:10.407,1.7676212504355535e+18,5.083553466796875,0.03737878799438475,-0.0101300217211246,1.42902135848e-05
2026-01-05 13:54:10.440,1.767621250455616e+18,5.103615966796875,0.03737878799438475,-0.0109133571386337,1.42902135848e-05
2026-01-05 13:54:10.473,1.7676212504756785e+18,5.123678466796875,0.03737878799438475,-0.0101300217211246,1.42902135848e-05
2026-01-05 13:54:10.506,1.767621250525822e+18,5.173821899414063,0.03737878799438475,-0.0109133571386337,0.00301657430827615
2026-01-05 13:54:10.539,1.7676212505559124e+18,5.203912353515625,0.0385618209838867,-0.0118548944592475,0.00477631390094755
2026-01-05 13:54:10.572,1.7676212505859963e+18,5.233996337890625,0.0385618209838867,-0.0118548944592475,0.0073873859637988105
2026-01-05 13:54:10.605,1.7676212506361377e+18,5.2841376953125,0.0385618209838867,-0.0064555183053016,0.0073873859637988105
2026-01-05 13:54:10.638,1.7676212506561953e+18,5.304195268228305,0.03616332077490554,-0.0089478977024555,0.00477631390094755
2026-01-05 13:54:10.671,1.7676212506762527e+18,5.324252685546875,0.0337648391723632,-0.0089478977024555,0.0009715966880321
2026-01-05 13:54:10.704,1.7676212507163645e+18,5.364364501953125,0.0313677787780761,-0.0089478977024555,-0.0014215447008609
2026-01-05 13:54:10.737,1.7676212507564797e+18,5.404479736328125,0.0313677787780761,-0.00983250886201855,-0.0016637481749057
2026-01-05 13:54:10.770,1.767621250786563e+18,5.434563110351562,0.0313677787780761,-0.0156506448984146,-0.0016637481749057
2026-01-05 13:54:10.803,1.7676212508116355e+18,5.459635412190981,0.03974560172473493,-0.0156506448984146,-0.001969811856910383
2026-01-05 13:54:10.836,1.7676212508367076e+18,5.48470751953125,0.03974560172473493,-0.017608203351641434,-0.001969811856910383
2026-01-05 13:54:10.869,1.7676212508768123e+18,5.524812255859375,0.03974560172473493,-0.017608203351641434,0.00397692993283265
2026-01-05 13:54:10.902,1.7676212509169244e+18,5.56492431640625,0.03614330291748045,-0.014486942440271301,0.00397692993283265
2026-01-05 13:54:10.935,1.7676212509470152e+18,5.595015014648437,0.0337533950805664,-0.0127351060509681,-0.0045825615525246005
2026-01-05 13:54:10.968,1.767621250987138e+18,5.635137939453125,0.033747196197509724,-0.0113517651334405,-0.0045825615525246005
2026-01-05 13:54:11.001,1.7676212510122097e+18,5.66020947265625,0.033747196197509724,-0.0113517651334405,-0.0045825615525246005
2026-01-05 13:54:11.034,1.767621251037281e+18,5.685281005859375,0.03614330291748045,-0.014486942440271301,-0.0045825615525246005
2026-01-05 13:54:11.067,1.7676212510773962e+18,5.725396240234375,0.0385313034057617,-0.0163991637527942,-0.002599861472845
2026-01-05 13:54:11.100,1.7676212511175122e+18,5.76551220703125,0.0385313034057617,-0.0253258012235164,-0.002599861472845
2026-01-05 13:54:11.133,1.7676212511576284e+18,5.80562841796875,0.0385313034057617,-0.0253258012235164,-0.002599861472845
2026-01-05 13:54:11.166,1.7676212511977426e+18,5.84574267578125,0.0385189056396484,-0.0163991637527942,-0.0071938373148441
2026-01-05 13:54:11.199,1.767621251217801e+18,5.865801025390625,0.037325382232665946,-0.01283960789442055,-0.0071938373148441
2026-01-05 13:54:11.232,1.7676212512378593e+18,5.885859375,0.0361318588256835,-0.0071006342768669,-0.0071938373148441
2026-01-05 13:54:11.265,1.7676212512779753e+18,5.925975341796875,0.037325382232665946,-0.0024421624839305,-0.00862276367843145
2026-01-05 13:54:11.298,1.767621251318084e+18,5.966083984375,0.0361213684082031,-0.002127394080162,-0.006859278306365
2026-01-05 13:54:11.331,1.767621251358188e+18,6.00618798828125,0.0361194610595703,-0.002127394080162,-0.0008423402905464
2026-01-05 13:54:11.364,1.7676212513782454e+18,6.026245361328125,0.0361213684082031,0.0011096820235252497,-0.0015608705580234
2026-01-05 13:54:11.397,1.7676212513983027e+18,6.046302734375,0.0409011840820312,0.0011096820235252497,-0.0015608705580234
2026-01-05 13:54:11.430,1.767621251438424e+18,6.086424072265625,0.0385007858276367,0.0011096820235252497,-0.0015608705580234
2026-01-05 13:54:11.463,1.7676212514785324e+18,6.126532470703125,0.0385007858276367,-0.003235574811697,-0.0015608705580234
2026-01-05 13:54:11.496,1.7676212515186463e+18,6.166646240234375,0.0385007858276367,-0.006618793891581877,-0.0024055652320384
2026-01-05 13:54:11.529,1.7676212515587607e+18,6.2067607421875,0.0385007858276367,-0.006618793891581877,-0.0049207285046577
2026-01-05 13:54:11.562,1.767621251578817e+18,6.226817060877519,0.0385007858276367,-0.003235574811697,-0.006213436034400943
2026-01-05 13:54:11.595,1.7676212515988736e+18,6.24687353515625,0.03849887848640204,-0.0058111064136028,-0.0081043578684329
2026-01-05 13:54:11.628,1.7676212516389768e+18,6.286976806640625,0.038496971130371,-0.0034957490861415,-0.0081043578684329
2026-01-05 13:54:11.661,1.7676212516790863e+18,6.32708642578125,0.038496971130371,-0.0030581951141357,-0.0081043578684329
2026-01-05 13:54:11.694,1.7676212517191944e+18,6.3671943359375,0.0361042022705078,-0.0030581951141357,0.0035471767187118
2026-01-05 13:54:11.727,1.7676212517592932e+18,6.407293212890625,0.0361042022705078,-0.0034957490861415,0.0035471767187118
2026-01-05 13:54:11.760,1.7676212517793395e+18,6.427339599609375,0.0408926010131835,-0.0034957490861415,0.0035471767187118
2026-01-05 13:54:11.793,1.7676212517993974e+18,6.4473974609375,0.0408926010131835,-0.0043344721198081,0.0035471767187118
2026-01-05 13:54:11.826,1.7676212518395075e+18,6.487507568359375,0.0385060310363769,-0.0043344721198081,0.0010337345302104
2026-01-05 13:54:11.859,1.7676212518695913e+18,6.51759130859375,0.0385060310363769,-0.014245705679059,-0.002913974225521
2026-01-05 13:54:11.892,1.767621251919736e+18,6.567736083984375,0.0385060310363769,-0.0043344721198081,-0.002913974225521
2026-01-05 13:54:11.925,1.7676212519397898e+18,6.587789794921875,0.036116600036621,-0.0030266717076301,-0.0002685897052288
2026-01-05 13:54:11.958,1.7676212519598566e+18,6.607856689453125,0.0337257385253906,-0.0030266717076301,-0.0054155029356479
2026-01-05 13:54:11.991,1.7676212519999729e+18,6.647972900390625,0.036116600036621,-0.0112310461699962,-0.0054155029356479
2026-01-05 13:54:12.024,1.767621252040086e+18,6.6880859375,0.0385093688964843,-0.0020580925047397,-0.0054155029356479
2026-01-05 13:54:12.057,1.7676212520801976e+18,6.72819775390625,0.0385141372680664,-0.0089617744088172,-0.0074210688471794
2026-01-05 13:54:12.090,1.7676212521203305e+18,6.76833056640625,0.0385141372680664,-0.0112310461699962,-0.0074210688471794
2026-01-05 13:54:12.123,1.767621252140389e+18,6.78838916015625,0.0433053970336914,-0.0089617744088172,-0.007901232689619
2026-01-05 13:54:12.156,1.7676212521604526e+18,6.80845263671875,0.0385141372680664,-0.0089617744088172,-0.008863074705004699
2026-01-05 13:54:12.189,1.7676212522105958e+18,6.858595703125,0.0385141372680664,-0.0089617744088172,-0.008863074705004699
2026-01-05 13:54:12.222,1.767621252240688e+18,6.888688232421875,0.0385189056396484,-0.016083937138319,0.002148475497961
2026-01-05 13:54:12.255,1.7676212522808054e+18,6.928805419921875,0.03911495208740232,-0.0167796537280082,0.0008307173848152247
2026-01-05 13:54:12.288,1.7676212523209103e+18,6.968910400390625,0.0385189056396484,-0.0167796537280082,0.0008307173848152247
2026-01-05 13:54:12.321,1.7676212523459817e+18,6.993981689453125,0.03911495208740232,-0.010254509747028299,0.0008307173848152247
2026-01-05 13:54:12.354,1.767621252371053e+18,7.019052978515624,0.03911495208740232,-0.014165099710226,-0.0005911365151405
2026-01-05 13:54:12.387,1.7676212524011466e+18,7.049146728515625,0.03731918334960935,-0.010254509747028299,-0.00280765816569325
2026-01-05 13:54:12.420,1.7676212524412677e+18,7.089267822265625,0.03731918334960935,-0.0069296732544898,-0.0074983313679695
2026-01-05 13:54:12.453,1.767621252481398e+18,7.12939794921875,0.043304443359375,-0.0069296732544898,-0.0095057673752307
2026-01-05 13:54:12.486,1.7676212525014548e+18,7.149454833984375,0.0361251831054687,-0.01231198944151405,-0.013110043480992251
2026-01-05 13:54:12.519,1.7676212525215217e+18,7.169521728515625,0.0409126281738281,-0.0087849609553813,-0.013110043480992251
2026-01-05 13:54:12.552,1.7676212525716613e+18,7.219661254882812,0.0409126281738281,-0.0087849609553813,-0.0095057673752307
2026-01-05 13:54:12.585,1.767621252601753e+18,7.249753173828125,0.0385160446166992,-0.0088092535734176,-0.0092706903815269
2026-01-05 13:54:12.618,1.767621252641874e+18,7.2898740234375,0.0325369834899902,-0.0088092535734176,-0.0090686120092868
2026-01-05 13:54:12.651,1.7676212526819978e+18,7.329997802734375,0.0385160446166992,-0.0088092535734176,-0.008281011134386
2026-01-05 13:54:12.684,1.7676212527020616e+18,7.350061401367187,0.0361280441284179,-0.0088092535734176,-0.00238032825291155
2026-01-05 13:54:12.717,1.767621252722125e+18,7.370125,0.0361280441284179,-0.0088092535734176,-0.0011293441057205
2026-01-05 13:54:12.750,1.7676212527622502e+18,7.410250244140625,0.0361280441284179,-0.0143086314201354,-0.00238032825291155
2026-01-05 13:54:12.783,1.7676212528023644e+18,7.450364501953125,0.0361280441284179,-0.0143086314201354,-0.008281011134386
2026-01-05 13:54:12.816,1.7676212528424768e+18,7.490476806640625,0.0337371826171875,-0.0143086314201354,-0.0154569186270236
2026-01-05 13:54:12.849,1.7676212528625372e+18,7.510537353515625,0.0289478302001953,-0.02028298824764689,-0.0154569186270236
2026-01-05 13:54:12.882,1.767621252882598e+18,7.530597900390625,0.0265531539916992,-0.02028298824764689,-0.0154569186270236
2026-01-05 13:54:12.915,1.7676212529227195e+18,7.570719482421875,0.0265531539916992,-0.021916731449590006,-0.01169878411714626
2026-01-05 13:54:12.948,1.7676212529628378e+18,7.610837646484375,0.0265531539916992,-0.02028298824764689,-0.0034863203763961
2026-01-05 13:54:12.981,1.7676212530029601e+18,7.650960205078125,0.0337400436401367,-0.0186492577195167,0.001094407043154467
2026-01-05 13:54:13.014,1.767621253043076e+18,7.691076171875,0.0361318588256835,0.0005873255431652,0.001094407043154467
2026-01-05 13:54:13.047,1.7676212530631368e+18,7.711136840820313,0.0409231185913085,0.0027389023452997,0.001094407043154467
2026-01-05 13:54:13.080,1.7676212530831974e+18,7.731197509765625,0.0409231185913085,0.0048904791474342,-0.0149652399122715
2026-01-05 13:54:13.113,1.767621253123319e+18,7.771319091796875,0.0409231185913085,0.0027389023452997,-0.0149652399122715
2026-01-05 13:54:13.146,1.767621253163448e+18,7.811447998046875,0.0361318588256835,0.0005873255431652,-0.0149652399122715
2026-01-05 13:54:13.179,1.7676212532035697e+18,7.851569580078125,0.0361280441284179,-0.0165444985032081,-0.014537708617004902
2026-01-05 13:54:13.212,1.767621253243688e+18,7.89168798828125,0.03373433087896214,-0.0186987780034542,-0.009218883592264401
2026-01-05 13:54:13.245,1.7676212532637445e+18,7.911744551110946,0.03373433087896214,-0.02080571390133337,-0.008037233548678049
2026-01-05 13:54:13.278,1.7676212532838013e+18,7.93180126953125,0.0361270904541015,-0.022912649799212537,-0.009218883592264401
2026-01-05 13:54:13.311,1.7676212533239212e+18,7.971921142578125,0.0361270904541015,-0.022912649799212537,-0.008037233548678049
2026-01-05 13:54:13.344,1.7676212533640404e+18,8.01204052734375,0.0409135818481445,-0.022912649799212537,-0.0015368089079856
2026-01-05 13:54:13.377,1.767621253404163e+18,8.0521630859375,0.043305864591674244,-0.022912649799212537,0.0084530264139175
2026-01-05 13:54:13.410,1.7676212534242273e+18,8.072227339167055,0.0409135818481445,-0.022912649799212537,0.0084530264139175
2026-01-05 13:54:13.443,1.7676212534442918e+18,8.092291748046875,0.0409135818481445,-0.0221379995346069,0.0084530264139175
2026-01-05 13:54:13.476,1.7676212534844175e+18,8.13241748046875,0.0361194610595703,-0.0221379995346069,0.010583715630744164
2026-01-05 13:54:13.509,1.767621253524528e+18,8.172528076171876,0.0361185073852539,-0.017303077038377475,-0.007079657167196299
2026-01-05 13:54:13.542,1.7676212535646436e+18,8.2126435546875,0.0361185073852539,-0.01207446958869695,-0.010841889306902849
2026-01-05 13:54:13.575,1.7676212535947343e+18,8.242734252929687,0.0361185073852539,-0.01207446958869695,-0.010841889306902849
2026-01-05 13:54:13.608,1.7676212536198118e+18,8.267811828613281,0.0385141372680664,-0.01207446958869695,-0.007079657167196299
2026-01-05 13:54:13.641,1.7676212536448893e+18,8.292889404296876,0.0385141372680664,-0.009479089318450654,-0.010841889306902849
2026-01-05 13:54:13.674,1.7676212536850153e+18,8.333015380859376,0.0385141372680664,-0.006883709048204357,-0.0146041214466094
2026-01-05 13:54:13.707,1.7676212537251325e+18,8.373132568359376,0.0361232757568359,-0.006883709048204357,-0.0146041214466094
2026-01-05 13:54:13.740,1.7676212537552123e+18,8.403212158203125,0.0349261714278802,-0.006883709048204357,-0.008068339270500933
2026-01-05 13:54:13.773,1.767621253805367e+18,8.453366943359375,0.033729076385498,-0.004288308644059947,-0.014568306505680001
2026-01-05 13:54:13.806,1.767621253830442e+18,8.478441991791478,0.0349261714278802,-0.010325126366749026,-0.014568306505680001
2026-01-05 13:54:13.839,1.767621253855517e+18,8.503516845703125,0.0361232757568359,-0.010325126366749026,-0.008068339270500933
2026-01-05 13:54:13.872,1.767621253885619e+18,8.533618896484375,0.0349261714278802,-0.018957391324744156,0.0033259131014347
2026-01-05 13:54:13.905,1.7676212539157105e+18,8.56371044921875,0.0337333679199218,-0.010310845318068397,-0.00483639165228784
2026-01-05 13:54:13.938,1.76762125396586e+18,8.613860107421875,0.0337333679199218,-0.010310845318068397,-0.00483639165228784
2026-01-05 13:54:13.971,1.7676212539859172e+18,8.633917314125322,0.0337333679199218,-0.010310845318068397,0.0033259131014347
2026-01-05 13:54:14.004,1.7676212540059743e+18,8.653974365234374,0.0337333679199218,-0.010310845318068397,0.0033259131014347
2026-01-05 13:54:14.037,1.767621254046093e+18,8.694093017578124,0.0313405897790337,0.0028113722801208,-0.00483639165228784
2026-01-05 13:54:14.070,1.7676212540862175e+18,8.734217529296876,0.03612944678387117,0.0028113722801208,0.0033826865255832
2026-01-05 13:54:14.103,1.767621254126317e+18,8.774317138671876,0.03612944678387117,0.0023749060928821,0.0033826865255832
2026-01-05 13:54:14.136,1.7676212541664356e+18,8.814435546875,0.03133821487426755,0.0023749060928821,-0.0023458283394574998
2026-01-05 13:54:14.169,1.767621254186494e+18,8.834493896484375,0.03133821487426755,0.0023749060928821,-0.0067858174443244
2026-01-05 13:54:14.202,1.7676212542065523e+18,8.85455224609375,0.031341552734375,-0.008426722139120102,-0.0023458283394574998
2026-01-05 13:54:14.235,1.767621254246673e+18,8.8946728515625,0.031341552734375,-0.008426722139120102,-0.0078927241265773
2026-01-05 13:54:14.268,1.7676212542867976e+18,8.934797607421874,0.0361270904541015,-0.004966601729393,-0.0094948895275592
2026-01-05 13:54:14.301,1.7676212543269166e+18,8.97491650390625,0.0361270904541015,-0.004382052985463009,-0.0094948895275592
2026-01-05 13:54:14.334,1.7676212543469693e+18,8.994969316061402,0.0361270904541015,-0.004966601729393,-0.0078927241265773
2026-01-05 13:54:14.367,1.767621254367022e+18,9.01502197265625,0.0337276458740234,-0.004382052985463009,-0.0078927241265773
2026-01-05 13:54:14.400,1.7676212544071314e+18,9.05513134765625,0.0289363861083984,-0.0037975087761878,0.0014915540814399
2026-01-05 13:54:14.433,1.7676212544472545e+18,9.095254638671875,0.0289363861083984,-0.0037975087761878,0.0038862451910972
2026-01-05 13:54:14.466,1.767621254487365e+18,9.135365234375,0.0289363861083984,-0.0113134384155273,0.0038862451910972
2026-01-05 13:54:14.499,1.7676212545274865e+18,9.175486572265624,0.03132817344347251,-0.0161003656685352,0.0038862451910972
2026-01-05 13:54:14.532,1.7676212545475476e+18,9.195547729492187,0.03132817344347251,-0.0161003656685352,-8.725747466085086e-05
2026-01-05 13:54:14.565,1.7676212545676088e+18,9.21560888671875,0.0313282012939453,-0.0161003656685352,-0.0086109191179275
2026-01-05 13:54:14.598,1.7676212546077425e+18,9.255742431640623,0.0313282012939453,-0.0091104693710803,-0.0086109191179275
2026-01-05 13:54:14.631,1.7676212546478664e+18,9.295866455078125,0.0337181091308593,0.0002769790589809,-0.0086109191179275
2026-01-05 13:54:14.664,1.7676212546879908e+18,9.33599072265625,0.0361127853393554,0.0002769790589809,-0.0137597024440765
2026-01-05 13:54:14.697,1.7676212547281098e+18,9.37610986328125,0.0361127853393554,-0.0091104693710803,-0.01626018964983169
2026-01-05 13:54:14.730,1.7676212547481684e+18,9.396168501298211,0.03611420655685832,-0.009631366220747443,-0.008022915571928
2026-01-05 13:54:14.763,1.7676212547682273e+18,9.416227294921876,0.0361194610595703,-0.0130194090306758,-0.008022915571928
2026-01-05 13:54:14.796,1.7676212548083553e+18,9.456355224609377,0.0361194610595703,-0.0137946419417858,-0.0123622231185436
2026-01-05 13:54:14.829,1.7676212548484818e+18,9.496481689453123,0.0361194610595703,-0.01729639433324335,-0.0033219568431377
2026-01-05 13:54:14.862,1.7676212548885972e+18,9.53659716796875,0.0337305068969726,-0.01729639433324335,-0.0007542036473751
2026-01-05 13:54:14.895,1.7676212549086572e+18,9.5566572265625,0.032533168792724554,-0.0137946419417858,-0.0007542036473751
2026-01-05 13:54:14.928,1.7676212549287173e+18,9.57671728515625,0.032533168792724554,-0.014165386557579,-0.0123622231185436
2026-01-05 13:54:14.961,1.7676212549788593e+18,9.626859252929687,0.03134059906005855,-0.014165386557579,-0.005010180175304401
2026-01-05 13:54:14.994,1.7676212550089513e+18,9.656951416015623,0.03134059906005855,-0.014165386557579,-0.0097584575414657
2026-01-05 13:54:15.027,1.767621255039046e+18,9.6870458984375,0.039721502879722564,-0.014165386557579,-0.0097584575414657
2026-01-05 13:54:15.060,1.7676212550892045e+18,9.73720458984375,0.039721502879722564,-0.0170446000993251,-0.006187562711677945
2026-01-05 13:54:15.093,1.7676212551092675e+18,9.757267500305074,0.0361309051513671,-0.0170446000993251,-0.0051238127052783
2026-01-05 13:54:15.126,1.7676212551293307e+18,9.77733056640625,0.0361309051513671,-0.0170446000993251,-0.0051238127052783
2026-01-05 13:54:15.159,1.7676212551694656e+18,9.817465576171877,0.0337333679199218,-0.0160570740699768,-0.0051238127052783
2026-01-05 13:54:15.192,1.7676212552095885e+18,9.85758837890625,0.0265483856201171,-0.0119003430008888,-0.0026166401803493
2026-01-05 13:54:15.225,1.7676212552497198e+18,9.8977197265625,0.0265483856201171,-0.010244463045112201,-0.0025589019060134
2026-01-05 13:54:15.258,1.7676212552798216e+18,9.927821533203126,0.0265483856201171,-0.010244463045112201,-0.0024240640923381
2026-01-05 13:54:15.291,1.767621255304907e+18,9.952906957652036,0.0265522003173828,-0.0092089846730232,-0.0024240640923381
2026-01-05 13:54:15.324,1.7676212553299922e+18,9.9779921875,0.02894452020350739,-0.010244463045112201,-0.0024240640923381
2026-01-05 13:54:15.357,1.767621255370132e+18,10.018132080078123,0.0349354743957519,-0.010244463045112201,-0.0023487612478241887
2026-01-05 13:54:15.390,1.767621255400235e+18,10.048234985351563,0.0349354743957519,-0.0100958235561847,-0.0088518187403678
2026-01-05 13:54:15.423,1.7676212554504236e+18,10.098423583984374,0.0337409973144531,-0.0100419335067272,-0.0088518187403678
2026-01-05 13:54:15.456,1.7676212554704801e+18,10.118480224609376,0.0337409973144531,-0.0100419335067272,-0.0040408372879028
2026-01-05 13:54:15.489,1.7676212554906166e+18,10.138616455078123,0.0337409973144531,-0.0100419335067272,0.0024410374462604
2026-01-05 13:54:15.522,1.7676212555307507e+18,10.178750732421875,0.0337409973144531,-0.0100419335067272,-0.0040408372879028
2026-01-05 13:54:15.555,1.7676212555709588e+18,10.218958740234376,0.030540829592026916,-0.0100419335067272,-0.0028807334601879
2026-01-05 13:54:15.588,1.7676212556111442e+18,10.259144287109375,0.030540829592026916,-0.0116642788052558,-0.0028807334601879
2026-01-05 13:54:15.621,1.7676212556512707e+18,10.299270751953124,0.030540829592026916,-0.0120077393949031,-0.009136378814899452
2026-01-05 13:54:15.654,1.7676212556713293e+18,10.319329423506003,0.030540829592026916,-0.015842828925255466,-0.0125733241438865
2026-01-05 13:54:15.687,1.767621255691388e+18,10.339387939453124,0.030540829592026916,-0.015842828925255466,-0.009136378814899452
2026-01-05 13:54:15.720,1.7676212557415352e+18,10.389535034179687,0.03253078460693355,-0.015842828925255466,-0.009136378814899452
2026-01-05 13:54:15.753,1.7676212557716278e+18,10.419627685546876,0.0337228775024414,-0.0129496976733207,-0.0153919756412506
2026-01-05 13:54:15.786,1.7676212558117507e+18,10.459750732421876,0.037309169769287054,-0.0129496976733207,-0.0057459669187665
2026-01-05 13:54:15.819,1.7676212558518723e+18,10.499872314453125,0.037309169769287054,-0.0115685239434242,-0.003786314278841
2026-01-05 13:54:15.852,1.7676212558719311e+18,10.519931152343752,0.0361099243164062,-0.0129496976733207,-0.0057459669187665
2026-01-05 13:54:15.885,1.76762125589199e+18,10.539989990234377,0.037309169769287054,-0.0102201625704765,-0.0057459669187665
2026-01-05 13:54:15.918,1.7676212559321e+18,10.58010009765625,0.037309169769287054,-0.0102201625704765,-0.0026310160756111
2026-01-05 13:54:15.951,1.7676212559722191e+18,10.62021923828125,0.036705255508422796,-0.0107432273216545,-0.0026310160756111
2026-01-05 13:54:15.984,1.767621256002308e+18,10.65030810546875,0.036705255508422796,-0.0107432273216545,-0.008265353739261573
2026-01-05 13:54:16.017,1.7676212560273864e+18,10.675386474609375,0.036705255508422796,-0.0107432273216545,-0.008265353739261573
2026-01-05 13:54:16.050,1.767621256052465e+18,10.70046484375,0.0361042022705078,-0.0107432273216545,-0.0117965377867221
2026-01-05 13:54:16.083,1.7676212560925916e+18,10.740591552734376,0.0361042022705078,-0.0107432273216545,-0.0117965377867221
2026-01-05 13:54:16.116,1.7676212561327142e+18,10.78071435546875,0.036102294921875,-0.0102770291268825,-0.0117965377867221
2026-01-05 13:54:16.149,1.7676212561728325e+18,10.82083251953125,0.036102294921875,-0.0099835135042667,-0.0091823898255825
2026-01-05 13:54:16.182,1.7676212562129508e+18,10.86095068359375,0.0337066650390625,-0.0052109584212303,-0.0067963935434818
2026-01-05 13:54:16.215,1.7676212562330122e+18,10.881012084960936,0.03251075744628905,-0.0052109584212303,-0.0067963935434818
2026-01-05 13:54:16.248,1.7676212562530734e+18,10.901073486328125,0.03251075744628905,-0.0052109584212303,-0.0067963935434818
2026-01-05 13:54:16.281,1.7676212563032225e+18,10.951222534179688,0.03251075744628905,-0.00270815938711165,-0.0138141121715307
2026-01-05 13:54:16.314,1.767621256333316e+18,10.981316162109374,0.026522159576416002,-0.0067058429121971,-0.0138141121715307
2026-01-05 13:54:16.347,1.7676212563634033e+18,11.0114033203125,0.02561961327272055,-0.008848756551742476,-0.0138141121715307
2026-01-05 13:54:16.380,1.7676212563884754e+18,11.036475463867188,0.02561961327272055,-0.0067058429121971,-0.0120429256930947
2026-01-05 13:54:16.413,1.7676212564135475e+18,11.061547607421875,0.02561961327272055,-0.0067789293825626,-0.0120429256930947
2026-01-05 13:54:16.446,1.7676212564536676e+18,11.10166748046875,0.0289125442504882,-0.008848756551742476,-0.0120429256930947
2026-01-05 13:54:16.479,1.7676212564938007e+18,11.14180078125,0.0337018966674804,-0.0097817219793796,-0.0111933499574661
2026-01-05 13:54:16.512,1.7676212565238825e+18,11.171882446289064,0.03489971160888665,-0.009474725721949321,-0.01213331334292885
2026-01-05 13:54:16.545,1.7676212565740268e+18,11.22202685546875,0.0361032485961914,-0.009474725721949321,-0.01479531545047141
2026-01-05 13:54:16.578,1.7676212565940874e+18,11.242087446603135,0.0361032485961914,-0.009474725721949321,-0.01213331334292885
2026-01-05 13:54:16.611,1.767621256614148e+18,11.262148193359376,0.0361032485961914,-0.0092155747115612,-0.01479531545047141
2026-01-05 13:54:16.644,1.767621256654255e+18,11.302255126953124,0.0337047576904296,-0.0092155747115612,-0.01479531545047141
2026-01-05 13:54:16.677,1.767621256694367e+18,11.342366943359377,0.0313129425048828,-0.0091677270829677,-0.0085696056485176
2026-01-05 13:54:16.710,1.767621256734481e+18,11.38248095703125,0.029515743255615172,-0.0019859224557876,-0.0085696056485176
2026-01-05 13:54:16.743,1.767621256774605e+18,11.42260498046875,0.029515743255615172,-0.0092155747115612,-0.010781891644001
2026-01-05 13:54:16.776,1.76762125679467e+18,11.442670043945313,0.0313129425048828,-0.0064981542527675,-0.010781891644001
2026-01-05 13:54:16.809,1.767621256814735e+18,11.462735107421874,0.0313129425048828,-0.0064981542527675,-0.010781891644001
2026-01-05 13:54:16.842,1.7676212568548544e+18,11.5028544921875,0.03330834190641278,-0.0064981542527675,-0.010874418541789
2026-01-05 13:54:16.875,1.7676212568949673e+18,11.54296728515625,0.03330834190641278,-0.0064981542527675,-0.010874418541789
2026-01-05 13:54:16.908,1.7676212569250496e+18,11.573049682617189,0.03330834190641278,-0.0064981542527675,-0.0071343481540679
2026-01-05 13:54:16.941,1.7676212569551406e+18,11.603140625,0.031315803527832,-0.0049417428672313005,-0.0071343481540679
2026-01-05 13:54:16.974,1.7676212569752077e+18,11.623207763671877,0.028316974639892523,-0.0049417428672313005,-0.010874418541789
2026-01-05 13:54:17.007,1.7676212570153326e+18,11.66333251953125,0.028316974639892523,-0.0054737292230129,-0.0071343481540679
2026-01-05 13:54:17.040,1.7676212570554614e+18,11.70346142578125,0.028316974639892523,-0.0075102299451828,-0.0151636339724063
2026-01-05 13:54:17.073,1.7676212570855557e+18,11.7335556640625,0.028912525677341268,-0.006239707310252626,-0.016162395625966608
2026-01-05 13:54:17.106,1.767621257135698e+18,11.783697998046875,0.028912525677341268,-0.006239707310252626,-0.016162395625966608
2026-01-05 13:54:17.139,1.767621257155758e+18,11.803758256519972,0.03250503540039055,-0.006239707310252626,-0.0151636339724063
2026-01-05 13:54:17.172,1.7676212571758182e+18,11.823818359375,0.033700942993164,-0.006239707310252626,-0.0151636339724063
2026-01-05 13:54:17.205,1.7676212572159442e+18,11.863944091796874,0.0337038040161132,-0.006239707310252626,-0.016162395625966608
2026-01-05 13:54:17.238,1.767621257256066e+18,11.904066162109377,0.03370618820190425,-0.0116765927523374,-0.0096173286437988
2026-01-05 13:54:17.271,1.7676212572861563e+18,11.934156372070312,0.033706665039062444,-0.0116765927523374,-0.0096173286437988
2026-01-05 13:54:17.304,1.7676212573262725e+18,11.974272583007812,0.03370714187622065,-0.0116765927523374,-0.009955548681318701
2026-01-05 13:54:17.337,1.767621257356359e+18,12.004359008789063,0.033706665039062444,-0.008652666583657225,-0.009955548681318701
2026-01-05 13:54:17.370,1.7676212573864453e+18,12.034445434570312,0.033706426617709,-0.005628740414977049,-0.009955548681318701
2026-01-05 13:54:17.403,1.767621257416541e+18,12.064541015625,0.033706426617709,-0.005628740414977049,-0.009955548681318701
2026-01-05 13:54:17.436,1.7676212574566615e+18,12.10466162109375,0.033705711364746,-0.005628740414977049,-0.0068467073142528
2026-01-05 13:54:17.469,1.7676212574967895e+18,12.14478955078125,0.033705711364746,-0.0044042579829692,-0.0041099153459072
2026-01-05 13:54:17.502,1.7676212575168525e+18,12.164852616882424,0.03250695667241022,-0.0044042579829692,-0.0041099153459072
2026-01-05 13:54:17.535,1.7676212575369155e+18,12.18491552734375,0.03250695667241022,-0.005912240333405844,-0.00292755190686937
2026-01-05 13:54:17.568,1.7676212575770383e+18,12.225038330078124,0.03250695667241022,-0.0044042579829692,-0.0041099153459072
2026-01-05 13:54:17.601,1.7676212576171858e+18,12.265185791015623,0.0337038040161132,-0.0022695660591125,-0.0091503039002418
2026-01-05 13:54:17.634,1.767621257657293e+18,12.30529296875,0.0313100814819335,0.0037064328789711,-0.0091503039002418
2026-01-05 13:54:17.667,1.767621257697419e+18,12.3454189453125,0.0313086509704589,-0.0022695660591125,-0.0055598355829715
2026-01-05 13:54:17.700,1.767621257717481e+18,12.365481079101563,0.028914451599121,0.0029324106872081,-0.0091503039002418
2026-01-05 13:54:17.733,1.7676212577375432e+18,12.385543212890624,0.0313086509704589,0.0029324106872081,-0.0091503039002418
2026-01-05 13:54:17.766,1.7676212577776576e+18,12.42565771484375,0.0289134979248046,-0.0012538358569145,-0.0194977112114429
2026-01-05 13:54:17.799,1.767621257817771e+18,12.46577099609375,0.0289134979248046,-0.0044933296740055,-0.0194977112114429
2026-01-05 13:54:17.832,1.7676212578578747e+18,12.505874755859375,0.0265159606933593,-0.0055311545729637,-0.0194977112114429
2026-01-05 13:54:17.865,1.76762125789798e+18,12.54597998046875,0.0312976837158203,-0.0127720683813095,-0.0197051800787448
2026-01-05 13:54:17.898,1.7676212579180296e+18,12.566029541015626,0.0312976837158203,-0.014726135879755,-0.0154194310307502
2026-01-05 13:54:17.931,1.767621257938091e+18,12.586091064453123,0.0313024520874023,-0.014726135879755,-0.0127441063523292
2026-01-05 13:54:17.964,1.767621257978208e+18,12.6262080078125,0.0312976837158203,-0.0174665842205286,-0.0119695104658603
2026-01-05 13:54:17.997,1.7676212580183311e+18,12.6663310546875,0.0313024520874023,-0.0174665842205286,-0.011134598404169
2026-01-05 13:54:18.030,1.7676212580584412e+18,12.706441162109376,0.0313062667846679,-0.016482885926961875,-0.008196802809834449
2026-01-05 13:54:18.063,1.7676212580835054e+18,12.731505432128907,0.0336980819702148,-0.0157466232776641,-0.0052590072154999
2026-01-05 13:54:18.096,1.7676212581085696e+18,12.756569702148438,0.0313062667846679,-0.0157466232776641,-0.0052590072154999
2026-01-05 13:54:18.129,1.7676212581386363e+18,12.78663623046875,0.036094665527343694,-0.0137168243527412,-0.0052590072154999
2026-01-05 13:54:18.162,1.7676212581787505e+18,12.82675048828125,0.0384902954101562,-0.008065052330493901,-0.0052590072154999
2026-01-05 13:54:18.195,1.7676212582188636e+18,12.866863525390626,0.0384902954101562,-0.008065052330493901,-0.006071312699335297
2026-01-05 13:54:18.228,1.7676212582489439e+18,12.89694384765625,0.0360879898071289,-0.008065052330493901,-0.006071312699335297
2026-01-05 13:54:18.261,1.7676212582790244e+18,12.9270244140625,0.0384788513183593,-0.0022564195096492,-0.006071312699335297
2026-01-05 13:54:18.294,1.767621258299086e+18,12.947086181640625,0.0384788513183593,-0.0046562366187572,-0.00856165960431095
2026-01-05 13:54:18.327,1.7676212583391962e+18,12.987196044921877,0.0360879898071289,-0.0022564195096492,-0.0041314922273159
2026-01-05 13:54:18.360,1.7676212583793047e+18,13.0273046875,0.0384788513183593,-0.0009218277597192231,-0.004097532345678119
2026-01-05 13:54:18.393,1.7676212584194248e+18,13.0674248046875,0.040877791197859684,-0.0009218277597192231,-0.0041314922273159
2026-01-05 13:54:18.426,1.7676212584394824e+18,13.087482466145746,0.040877791197859684,-0.002117533236742,-0.004097532345678119
2026-01-05 13:54:18.459,1.7676212584595402e+18,13.107540283203123,0.0360908508300781,-0.0009218277597192231,-0.0026874877512454
2026-01-05 13:54:18.492,1.767621258499653e+18,13.147653076171874,0.0360908508300781,-0.002117533236742,-0.004097532345678119
2026-01-05 13:54:18.525,1.7676212585397676e+18,13.187767578125,0.0312986373901367,-0.002117533236742,-0.004213344305753701
2026-01-05 13:54:18.558,1.767621258579871e+18,13.22787109375,0.028901576995849547,-0.001501068472862225,-0.0026874877512454
2026-01-05 13:54:18.591,1.767621258609961e+18,13.257960815429687,0.028900146484375,-0.001501068472862225,-0.0011726738885045004
2026-01-05 13:54:18.624,1.7676212586400504e+18,13.288050415039063,0.028900146484375,-0.0021257791668176,-0.0014798417687415999
2026-01-05 13:54:18.657,1.76762125867014e+18,13.318140014648439,0.028901576995849547,-0.0021257791668176,-0.0014798417687415999
2026-01-05 13:54:18.690,1.7676212587102444e+18,13.358244262695312,0.027704715728759724,-0.0021257791668176,-0.0014798417687415999
2026-01-05 13:54:18.723,1.7676212587403213e+18,13.3883212890625,0.0324974060058593,-0.0021257791668176,-0.0014798417687415999
2026-01-05 13:54:18.756,1.7676212587804347e+18,13.4284345703125,0.0360908508300781,0.0020618438720703,-0.0053706392645835
2026-01-05 13:54:18.789,1.7676212588205402e+18,13.4685400390625,0.0384845733642578,0.0065969042479991,-0.0153973661363124
2026-01-05 13:54:18.822,1.767621258840594e+18,13.488593994140626,0.0360908508300781,0.0065969042479991,-0.0153973661363124
2026-01-05 13:54:18.855,1.7676212588606543e+18,13.508654296875,0.0360908508300781,0.0020618438720703,-0.0032930523157119
2026-01-05 13:54:18.888,1.7676212589107958e+18,13.558795654296876,0.0337018966674804,0.0020618438720703,-0.0153973661363124
2026-01-05 13:54:18.921,1.7676212589408886e+18,13.588888671875,0.0313081741333007,-0.0060599260032176,-0.0104678384959697
2026-01-05 13:54:18.954,1.7676212589810068e+18,13.6290068359375,0.0313081741333007,-0.0060599260032176,-0.0032930523157119
2026-01-05 13:54:18.987,1.7676212590010575e+18,13.6490576171875,0.0325078964233398,0.0014842823147773,-0.0104678384959697
2026-01-05 13:54:19.020,1.767621259021116e+18,13.669115966796875,0.0336999893188476,0.0014842823147773,-0.0104678384959697
2026-01-05 13:54:19.053,1.7676212590712456e+18,13.719245483398439,0.0325078964233398,-0.0013342760503292001,-0.0101690106093883
2026-01-05 13:54:19.086,1.7676212591013348e+18,13.749334716796875,0.0336999893188476,-0.0013342760503292001,-0.00357121787965295
2026-01-05 13:54:19.119,1.7676212591314227e+18,13.779422607421875,0.0325078964233398,-0.0013342760503292001,-0.0101690106093883
2026-01-05 13:54:19.152,1.7676212591815695e+18,13.829569580078124,0.0360946655273437,-0.0035477168858051,-0.0101690106093883
2026-01-05 13:54:19.185,1.767621259201625e+18,13.849625,0.0360946655273437,-0.0035477168858051,-0.00357121787965295
2026-01-05 13:54:19.218,1.7676212592216868e+18,13.869686767578123,0.0360946655273437,-0.0035477168858051,-0.003510259091854
2026-01-05 13:54:19.251,1.7676212592617992e+18,13.909799072265624,0.033715724945068304,0.0025792345404624,-0.0003158971667289
2026-01-05 13:54:19.284,1.7676212593019064e+18,13.949906494140626,0.0408849716186523,0.0025792345404624,-0.0003158971667289
2026-01-05 13:54:19.317,1.7676212593319926e+18,13.979992431640625,0.04449510574340815,0.0025792345404624,-0.0003158971667289
2026-01-05 13:54:19.350,1.7676212593821484e+18,14.0301484375,0.0409069061279296,0.0025792345404624,-0.0151885338127613
2026-01-05 13:54:19.383,1.7676212594022077e+18,14.050207641601562,0.0409069061279296,0.0012578777968883497,-0.0151885338127613
2026-01-05 13:54:19.416,1.767621259422267e+18,14.070266845703124,0.04449510574340815,-0.0060926154255867,-0.01564911939203735
2026-01-05 13:54:19.449,1.7676212594623854e+18,14.110385498046876,0.0409069061279296,-0.0060926154255867,-0.0151885338127613
2026-01-05 13:54:19.482,1.7676212595025088e+18,14.1505087890625,0.03851318359375,-0.0158087126910686,-0.0126834474503993
2026-01-05 13:54:19.515,1.7676212595426222e+18,14.190622314453124,0.0337276458740234,-0.0202786270529031,-0.0051457732915878
2026-01-05 13:54:19.548,1.767621259562678e+18,14.210677978515625,0.0337262153625488,-0.0202786270529031,-0.0038405656814575
2026-01-05 13:54:19.581,1.7676212595827415e+18,14.230741455078125,0.0337262153625488,-0.0015303194522857,-0.0038405656814575
2026-01-05 13:54:19.614,1.767621259622861e+18,14.270861083984377,0.0337262153625488,-0.0164637602865695,-0.0051457732915878
2026-01-05 13:54:19.647,1.7676212596629842e+18,14.310984130859374,0.0361185073852539,-0.0088000409305095,-0.0051457732915878
2026-01-05 13:54:19.680,1.7676212597031004e+18,14.351100341796876,0.0361185073852539,-0.00766402737358346,-0.0022355437164798255
2026-01-05 13:54:19.713,1.7676212597432143e+18,14.39121435546875,0.0361185073852539,-0.00766402737358346,-0.0058881230652332
2026-01-05 13:54:19.746,1.7676212597632904e+18,14.411290449472688,0.0361185073852539,-0.0088000409305095,-0.0058881230652332
2026-01-05 13:54:19.779,1.7676212597833667e+18,14.43136669921875,0.0361156463623046,-0.00766402737358346,-0.0022355437164798255
2026-01-05 13:54:19.812,1.7676212598234545e+18,14.471454345703124,0.0337190628051757,-0.00766402737358346,-0.0058881230652332
2026-01-05 13:54:19.845,1.7676212598635697e+18,14.511569580078126,0.0361156463623046,-0.0091588646173477,-0.0079147070646286
2026-01-05 13:54:19.878,1.7676212599036838e+18,14.551683837890623,0.0361213684082031,-0.0091588646173477,-0.0079147070646286
2026-01-05 13:54:19.911,1.7676212599437932e+18,14.591793212890623,0.03850364685058585,-0.0091588646173477,-0.0079147070646286
2026-01-05 13:54:19.944,1.7676212599638418e+18,14.611841796875,0.043288230895996,-0.01184498518705365,-0.0079147070646286
2026-01-05 13:54:19.977,1.7676212599839043e+18,14.631904296875,0.043288230895996,-0.01184498518705365,-0.002495690689608022
2026-01-05 13:54:20.010,1.7676212600240092e+18,14.67200927734375,0.043288230895996,-0.0059048719704151,-0.002495690689608022
2026-01-05 13:54:20.043,1.767621260064115e+18,14.712114990234374,0.0289230346679687,-0.01184498518705365,-0.008694052696228
2026-01-05 13:54:20.076,1.7676212601042243e+18,14.752224365234374,0.0289230346679687,-0.0012771449983119,-0.008694052696228
2026-01-05 13:54:20.109,1.7676212601242755e+18,14.772275390625,0.0289230346679687,-0.0012771449983119,-0.008694052696228
2026-01-05 13:54:20.142,1.7676212601443392e+18,14.792339111328126,0.0360994338989257,-0.0029150359332561493,-0.008694052696228
2026-01-05 13:54:20.175,1.7676212601844646e+18,14.832464599609375,0.0361003875732421,-0.002945177257061,-0.009567821398377401
2026-01-05 13:54:20.208,1.7676212602245676e+18,14.872567626953124,0.0361003875732421,-0.002945177257061,-0.009567821398377401
2026-01-05 13:54:20.241,1.7676212602646697e+18,14.912669677734376,0.0360994338989257,-0.0077584497630596,-0.009389603663415295
2026-01-05 13:54:20.274,1.767621260304787e+18,14.952786865234376,0.03609704971313475,-0.0113972872495651,-0.009389603663415295
2026-01-05 13:54:20.307,1.7676212603298596e+18,14.977859594321545,0.03609704971313475,-0.0113972872495651,-0.009567821398377401
2026-01-05 13:54:20.340,1.7676212603549322e+18,15.00293212890625,0.03609704971313475,-0.0113972872495651,-0.0099147595465183
2026-01-05 13:54:20.373,1.7676212603850227e+18,15.033022705078125,0.03609704971313475,-0.0104860961437225,-0.0099147595465183
2026-01-05 13:54:20.406,1.7676212604251382e+18,15.07313818359375,0.0372953414916992,-0.0071394890546798,-0.0175959281623363
2026-01-05 13:54:20.439,1.7676212604652567e+18,15.113256591796874,0.0384864807128906,-0.0071394890546798,-0.0175959281623363
2026-01-05 13:54:20.472,1.76762126048531e+18,15.133309814453124,0.0372953414916992,-0.0043303091078996,-0.010467996820807426
2026-01-05 13:54:20.505,1.767621260505363e+18,15.153363037109376,0.0313119888305664,-0.0043303091078996,-0.016935683786869
2026-01-05 13:54:20.538,1.7676212605555016e+18,15.203501708984374,0.033700942993164,-0.0043303091078996,-0.0168135873973369
2026-01-05 13:54:20.571,1.767621260585591e+18,15.233591064453124,0.033700942993164,-0.0077520757913589,-0.0168135873973369
2026-01-05 13:54:20.604,1.767621260625713e+18,15.273712890625,0.033700942993164,-0.011386703525955305,-0.0168135873973369
2026-01-05 13:54:20.637,1.7676212606658286e+18,15.31382861328125,0.0384845733642578,-0.011386703525955305,-0.0168135873973369
2026-01-05 13:54:20.670,1.7676212606858854e+18,15.333885331701554,0.03968333733022029,-0.0062814392149448,-0.0168135873973369
2026-01-05 13:54:20.703,1.767621260705942e+18,15.35394189453125,0.040877342224121,-0.0062814392149448,-0.0169172920286655
2026-01-05 13:54:20.736,1.767621260746042e+18,15.3940419921875,0.03968333733022029,-0.0060362890362739,-0.007428297973614349
2026-01-05 13:54:20.769,1.767621260786151e+18,15.43415087890625,0.0384845733642578,-0.003898587077856,-0.0068558305501937
2026-01-05 13:54:20.802,1.767621260816233e+18,15.464233154296874,0.03249883651733395,-0.0019782222807407,-0.010751678608357873
2026-01-05 13:54:20.835,1.76762126086637e+18,15.5143701171875,0.03249883651733395,-0.0019782222807407,-0.010751678608357873
2026-01-05 13:54:20.868,1.7676212608914322e+18,15.539432250976562,0.03249883651733395,-0.0013344436883926,-0.010751678608357873
2026-01-05 13:54:20.901,1.7676212609164943e+18,15.564494384765624,0.0307092666625976,-0.0019782222807407,-0.010751678608357873
2026-01-05 13:54:20.934,1.7676212609465792e+18,15.5945791015625,0.0349035263061523,-0.0026220008730888002,-0.014647526666522049
2026-01-05 13:54:20.967,1.767621260986683e+18,15.634682861328123,0.0349035263061523,-0.007926487363874926,-0.014647526666522049
2026-01-05 13:54:21.000,1.7676212610167624e+18,15.664762451171875,0.030121088027954046,-0.007926487363874926,-0.01203602831810705
2026-01-05 13:54:21.033,1.7676212610418396e+18,15.68983984375,0.030121088027954046,-0.007926487363874926,-0.0089665539562702
2026-01-05 13:54:21.066,1.767621261066917e+18,15.714917236328125,0.036105632781982394,-0.007926487363874926,-0.0031950436532497
2026-01-05 13:54:21.099,1.7676212611070405e+18,15.75504052734375,0.0361127853393554,-0.0063941664993762,-0.0009851083159446
2026-01-05 13:54:21.132,1.7676212611471675e+18,15.79516748046875,0.0361137390136718,-0.0063941664993762,-0.0009851083159446
2026-01-05 13:54:21.165,1.767621261187296e+18,15.8352958984375,0.0361137390136718,-0.0081858653575182,-0.0031950436532497
2026-01-05 13:54:21.198,1.7676212612274225e+18,15.87542236328125,0.0361127853393554,-0.0081858653575182,-0.0078980773687362
2026-01-05 13:54:21.231,1.7676212612474852e+18,15.895485107421877,0.034914493560790946,-0.006527479737997,-0.0078980773687362
2026-01-05 13:54:21.264,1.767621261267548e+18,15.9155478515625,0.0289258956909179,-0.0081858653575182,-0.0078980773687362
2026-01-05 13:54:21.297,1.767621261307674e+18,15.955674072265625,0.0289258956909179,-0.0081858653575182,-0.0077719464898109
2026-01-05 13:54:21.330,1.7676212613478026e+18,15.995802734375,0.0289258956909179,-0.00697353295981875,-0.0077719464898109
2026-01-05 13:54:21.363,1.767621261387925e+18,16.035925048828126,0.034910225245575174,-0.009912117162078085,-0.0010243638318410608
2026-01-05 13:54:21.396,1.7676212614180132e+18,16.066013061523435,0.034910225245575174,-0.010729506611824,-0.0010243638318410608
2026-01-05 13:54:21.429,1.767621261443101e+18,16.09110091587294,0.034910225245575174,-0.010729506611824,-0.0077719464898109
2026-01-05 13:54:21.462,1.767621261468189e+18,16.11618896484375,0.0313196182250976,-0.009912117162078085,-0.0010243638318410608
2026-01-05 13:54:21.495,1.7676212615082988e+18,16.156298828125,0.0289258956909179,-0.0106892436742782,-0.0006286352872848
2026-01-05 13:54:21.528,1.7676212615484152e+18,16.196415283203127,0.028925867829347883,-0.010785402357127393,-0.0006286352872848
2026-01-05 13:54:21.561,1.7676212615885665e+18,16.23656640625,0.0289258956909179,-0.010785402357127393,-0.003033600732442091
2026-01-05 13:54:21.594,1.7676212616086298e+18,16.25662980499068,0.0313196182250976,-0.010785402357127393,-0.0008944757282733
2026-01-05 13:54:21.627,1.7676212616286932e+18,16.276693359375,0.0313234329223632,-0.010785402357127393,-0.0008944757282733
2026-01-05 13:54:21.660,1.7676212616688154e+18,16.3168154296875,0.0313234329223632,-0.0108815617859363,-0.003033600732442091
2026-01-05 13:54:21.693,1.7676212617089708e+18,16.356970703125,0.0361089706420898,-0.0160036198794841,-0.0054385848343372
2026-01-05 13:54:21.726,1.7676212617490962e+18,16.39709619140625,0.038507938385009696,-0.0160036198794841,-0.00897552445530885
2026-01-05 13:54:21.759,1.7676212617892183e+18,16.43721826171875,0.0313234329223632,-0.01175884529948235,-0.00897552445530885
2026-01-05 13:54:21.792,1.7676212618092792e+18,16.45727917480469,0.0337171554565429,-0.0135735310614109,-0.00897552445530885
2026-01-05 13:54:21.825,1.7676212618293402e+18,16.477340087890624,0.038507938385009696,-0.01175884529948235,-0.00897552445530885
2026-01-05 13:54:21.858,1.7676212618694612e+18,16.517461181640623,0.0337171554565429,-0.0040721781551837,-0.00897552445530885
2026-01-05 13:54:21.891,1.7676212619095852e+18,16.557585205078126,0.0313234329223632,-0.0040721781551837,-0.0114503093063831
2026-01-05 13:54:21.924,1.7676212619497196e+18,16.597719482421876,0.030134701100622253,-0.0135735310614109,-0.0114503093063831
2026-01-05 13:54:21.957,1.767621261989836e+18,16.6378359375,0.030134701100622253,-0.0167603753507137,-0.0114503093063831
2026-01-05 13:54:21.990,1.767621262009899e+18,16.657899003601177,0.030134701100622253,-0.0167603753507137,-0.010249380952103558
2026-01-05 13:54:22.023,1.767621262029962e+18,16.6779619140625,0.0337276458740234,-0.0167603753507137,-0.010249380952103558
2026-01-05 13:54:22.056,1.7676212620700897e+18,16.71808984375,0.0337285995483398,-0.0104962773621082,-0.010249380952103558
2026-01-05 13:54:22.089,1.7676212621102162e+18,16.75821630859375,0.03493067352578655,-0.005068555197817375,-0.0090484619140625
2026-01-05 13:54:22.122,1.7676212621503158e+18,16.798315673828125,0.0337285995483398,-0.005068555197817375,-0.0050537446031408695
2026-01-05 13:54:22.155,1.7676212621703695e+18,16.818369462549565,0.03493067352578655,-0.008838977664709,-0.0050537446031408695
2026-01-05 13:54:22.188,1.767621262190423e+18,16.838423095703124,0.03493067352578655,-0.0073298774659633,-0.0032900460064411
2026-01-05 13:54:22.221,1.7676212622305372e+18,16.878537109375,0.03493067352578655,-0.0073298774659633,-0.0032900460064411
2026-01-05 13:54:22.254,1.7676212622706647e+18,16.918664794921874,0.0361394882202148,-0.008838977664709,-0.0032900460064411
2026-01-05 13:54:22.287,1.7676212623107914e+18,16.95879150390625,0.043313980102539,-0.015014352276921201,-0.0100917853415012
2026-01-05 13:54:22.320,1.767621262350908e+18,16.998907958984375,0.0433254241943359,-0.0073298774659633,-0.0100917853415012
2026-01-05 13:54:22.353,1.767621262370965e+18,17.01896484375,0.0433254241943359,-0.015014352276921201,-0.0100917853415012
2026-01-05 13:54:22.386,1.7676212623910218e+18,17.039021728515625,0.0433254241943359,-0.0166226178407669,-0.0098357982933521
2026-01-05 13:54:22.419,1.7676212624311288e+18,17.07912890625,0.0289554595947265,-0.015014352276921201,-0.0094744823873043
2026-01-05 13:54:22.452,1.7676212624712443e+18,17.119244384765626,0.0289554595947265,-0.014670738286767375,-0.0008526486192824428
2026-01-05 13:54:22.485,1.7676212625113595e+18,17.159359375,0.0289554595947265,-0.0166226178407669,-0.0008526486192824428
2026-01-05 13:54:22.518,1.7676212625314191e+18,17.179419023119166,0.0313549041748046,-0.014670738286767375,0.0002239234745502
2026-01-05 13:54:22.551,1.7676212625514785e+18,17.199478515625,0.03614238639685615,-0.014670738286767375,-0.0008526486192824428
2026-01-05 13:54:22.584,1.7676212625915996e+18,17.239599609375,0.040928840637207,-0.014670738286767375,-0.0019292123615741
2026-01-05 13:54:22.617,1.7676212626317263e+18,17.279726318359376,0.040928840637207,-0.0125449895858764,-0.0019292123615741
2026-01-05 13:54:22.650,1.767621262671832e+18,17.31983203125,0.0337467193603515,-0.0119645558297634,0.0001221634447574
2026-01-05 13:54:22.683,1.767621262711944e+18,17.35994384765625,0.040928840637207,-0.0119645558297634,-0.0044252052903175
2026-01-05 13:54:22.716,1.7676212627320026e+18,17.38000244140625,0.0409317016601562,-0.0119645558297634,0.0001221634447574
2026-01-05 13:54:22.749,1.7676212627520676e+18,17.400067626953124,0.0337533950805664,-0.0119645558297634,0.0032913796603679
2026-01-05 13:54:22.782,1.7676212627921897e+18,17.440189697265627,0.0385408401489257,-0.0103446319699287,0.0001221634447574
2026-01-05 13:54:22.815,1.7676212628323154e+18,17.4803154296875,0.0409355163574218,-0.0103446319699287,-0.0010938346385955
2026-01-05 13:54:22.848,1.7676212628724334e+18,17.520433349609377,0.0385408401489257,-0.004055991362904774,-0.0010938346385955
2026-01-05 13:54:22.881,1.7676212629125504e+18,17.56055029296875,0.0361538211780354,-0.004055991362904774,-0.004614961645680158
2026-01-05 13:54:22.914,1.7676212629326124e+18,17.580612226871363,0.0361538211780354,-0.0069036819040775,-0.004614961645680158
2026-01-05 13:54:22.947,1.7676212629526743e+18,17.60067431640625,0.0361499786376953,-0.0069036819040775,-0.0010938346385955
2026-01-05 13:54:22.980,1.7676212629928064e+18,17.640806396484376,0.028975486755371,-0.0070419423282146,0.0028410553932189
2026-01-05 13:54:23.013,1.7676212630329257e+18,17.68092578125,0.0289649963378906,-0.0110195986926555,0.0060853660106658
2026-01-05 13:54:23.046,1.7676212630730412e+18,17.721041259765624,0.0289649963378906,-0.0132338739931583,0.0060853660106658
2026-01-05 13:54:23.079,1.7676212630930993e+18,17.741099365234376,0.0361499786376953,-0.0133187882602214,0.0028410553932189
2026-01-05 13:54:23.112,1.7676212631131686e+18,17.761168701171876,0.0385398864746093,-0.0133187882602214,0.0068445578217506
2026-01-05 13:54:23.145,1.767621263153292e+18,17.8012919921875,0.0409317016601562,-0.0133187882602214,0.005395885525811801
2026-01-05 13:54:23.178,1.767621263193416e+18,17.841416015625,0.0409317016601562,-0.0178831927478313,0.0039472244679927
2026-01-05 13:54:23.211,1.7676212632335444e+18,17.88154443359375,0.043319216035803035,-0.02061284959995612,0.0039472244679927
2026-01-05 13:54:23.244,1.7676212632736737e+18,17.921673828125,0.043319216035803035,-0.02061284959995612,0.0039472244679927
2026-01-05 13:54:23.277,1.7676212632937341e+18,17.941734175119706,0.043319216035803035,-0.0189975723624229,-0.004563652494631876
2026-01-05 13:54:23.310,1.7676212633137946e+18,17.961794677734375,0.0409278869628906,-0.0189975723624229,-0.0130745954811573
2026-01-05 13:54:23.343,1.7676212633539192e+18,18.001919189453126,0.0385284423828125,-0.0139596574008464,-0.0130745954811573
2026-01-05 13:54:23.376,1.767621263394078e+18,18.04207788085937,0.0385284423828125,-0.0138654559850692,-0.0130745954811573
2026-01-05 13:54:23.409,1.7676212634342054e+18,18.082205322265622,0.0385284423828125,-0.0118593983352184,-0.0095877461135387
2026-01-05 13:54:23.442,1.7676212634743373e+18,18.122337158203123,0.0433158874511718,0.0005710814148187,-0.0008406188059872019
2026-01-05 13:54:23.475,1.7676212634994196e+18,18.147419591917778,0.0433158874511718,0.0005710814148187,-0.0008406188059872019
2026-01-05 13:54:23.508,1.7676212635245018e+18,18.17250183105469,0.043318271627715114,0.0005710814148187,-0.0035051815211772
2026-01-05 13:54:23.541,1.7676212635546035e+18,18.202603515625,0.0433158874511718,-0.0040966086089611,-0.0035051815211772
2026-01-05 13:54:23.574,1.7676212635947246e+18,18.242724609375,0.0421094894409179,-0.0054358802735805,-0.0035051815211772
2026-01-05 13:54:23.607,1.7676212636348462e+18,18.28284619140625,0.0421094894409179,-0.0079209245741367,-0.0035051815211772
2026-01-05 13:54:23.640,1.7676212636549102e+18,18.30291015625,0.0421094894409179,-0.0079209245741367,-0.00251901522278785
2026-01-05 13:54:23.673,1.7676212636749742e+18,18.32297412109375,0.0361242294311523,-0.005857722107711676,-0.00251901522278785
2026-01-05 13:54:23.706,1.767621263715097e+18,18.36309716796875,0.0421094894409179,-0.00891469605267045,-0.0018586833029985
2026-01-05 13:54:23.739,1.767621263755219e+18,18.403218994140627,0.0361185073852539,-0.0067058503627777,-0.0018586833029985
2026-01-05 13:54:23.772,1.7676212637853074e+18,18.433307373046873,0.0337247848510742,-0.0067058503627777,-0.003247894346714
2026-01-05 13:54:23.805,1.767621263835467e+18,18.483467041015626,0.0337247848510742,-0.0067058503627777,-0.008711055350555663
2026-01-05 13:54:23.838,1.767621263855519e+18,18.50351904296875,0.0337247848510742,-0.01023765280842775,-0.0127571076154708
2026-01-05 13:54:23.871,1.7676212638755812e+18,18.523581298828127,0.0337247848510742,-0.008511908352375,-0.0127571076154708
2026-01-05 13:54:23.904,1.7676212639157002e+18,18.5637001953125,0.0337247848510742,-0.008511908352375,-0.0127571076154708
2026-01-05 13:54:23.937,1.7676212639558226e+18,18.603822509765624,0.03611135482233216,-0.0062858723104,-0.01084194606628746
2026-01-05 13:54:23.970,1.7676212639959414e+18,18.64394140625,0.0361099243164062,-0.0051568523049354,-0.01084194606628746
2026-01-05 13:54:24.003,1.7676212640159992e+18,18.663999345378166,0.03611135482233216,-0.0051568523049354,-0.0080880224704742
2026-01-05 13:54:24.036,1.767621264036057e+18,18.68405712890625,0.0361127853393554,-0.0051568523049354,-0.01084194606628746
2026-01-05 13:54:24.069,1.767621264076173e+18,18.72417309570313,0.03611135482233216,-0.005096893525015614,-0.015870951116085
2026-01-05 13:54:24.102,1.767621264116306e+18,18.764305908203124,0.0361099243164062,-0.0050369352102279,-0.015870951116085
2026-01-05 13:54:24.135,1.7676212641564175e+18,18.80441748046875,0.0408906936645507,-0.0010478571057319498,-0.01003819983452555
2026-01-05 13:54:24.168,1.7676212641865073e+18,18.834507202148437,0.041484594345092725,0.001097185537219025,-0.0125976577401161
2026-01-05 13:54:24.201,1.7676212642115825e+18,18.859582580566403,0.041484594345092725,0.001097185537219025,-0.0104276612401008
2026-01-05 13:54:24.234,1.767621264236658e+18,18.884657958984373,0.041484594345092725,-0.0010478571057319498,-0.0104276612401008
2026-01-05 13:54:24.267,1.7676212642767662e+18,18.92476611328125,0.041484594345092725,-0.00427601486444475,-0.0108516477048397
2026-01-05 13:54:24.300,1.7676212643168763e+18,18.964876220703125,0.043278694152832,-0.00427601486444475,-0.0125976577401161
2026-01-05 13:54:24.333,1.767621264346948e+18,18.994947998046875,0.0408859252929687,-0.00427601486444475,-0.0108516477048397
2026-01-05 13:54:24.366,1.7676212643970952e+18,19.04509521484375,0.038492202758789,-0.00427601486444475,-0.0108516477048397
2026-01-05 13:54:24.399,1.7676212644171592e+18,19.065159057617187,0.038492202758789,-0.00427601486444475,-0.00699332170188425
2026-01-05 13:54:24.432,1.767621264437223e+18,19.085222900390622,0.038492202758789,-0.005435936152935,-0.00699332170188425
2026-01-05 13:54:24.465,1.7676212644773437e+18,19.12534375,0.038492202758789,-0.0071186684072017,-0.0015740916132926
2026-01-05 13:54:24.498,1.767621264517457e+18,19.16545678710937,0.038492202758789,-0.00981101579964155,-0.0003741104155778499
2026-01-05 13:54:24.531,1.767621264557573e+18,19.205572998046875,0.0432929992675781,-0.0125033631920814,-0.0003741104155778499
2026-01-05 13:54:24.564,1.767621264577624e+18,19.225624023437504,0.0432958602905273,-0.00981101579964155,-0.0015740916132926
2026-01-05 13:54:24.597,1.767621264597675e+18,19.24567504882813,0.044491767883300753,-0.00981101579964155,-0.0015740916132926
2026-01-05 13:54:24.630,1.7676212646377943e+18,19.285794189453124,0.044491767883300753,-0.00981101579964155,-0.0003741104155778499
2026-01-05 13:54:24.663,1.7676212646779113e+18,19.32591137695313,0.0432958602905273,-0.0052027739584445,-0.0024759694933891
2026-01-05 13:54:24.696,1.7676212647180285e+18,19.366028564453124,0.04209422601319257,-0.0052027739584445,-0.0139469988644123
2026-01-05 13:54:24.729,1.7676212647581494e+18,19.4061494140625,0.04209422601319257,-0.0075246042851203065,-0.0147480368614196
2026-01-05 13:54:24.762,1.7676212647782075e+18,19.426207563800105,0.040898323059082,-0.0075246042851203065,-0.0147480368614196
2026-01-05 13:54:24.795,1.7676212647982659e+18,19.446265869140625,0.040898323059082,-0.0075246042851203065,-0.0147480368614196
2026-01-05 13:54:24.828,1.767621264838372e+18,19.4863720703125,0.04209422601319257,-0.0075246042851203065,-0.014107909053564
2026-01-05 13:54:24.861,1.7676212648784904e+18,19.526490478515623,0.0408964157104492,-0.0098464526236057,-0.0047126598656177
2026-01-05 13:54:24.894,1.7676212649085798e+18,19.556580078125,0.0408964157104492,-0.00946290791034695,-0.0047126598656177
2026-01-05 13:54:24.927,1.767621264958738e+18,19.606738037109373,0.04208564758300775,-0.0009623803198337,-0.006330547854304301
2026-01-05 13:54:24.960,1.7676212649787986e+18,19.626798706054686,0.04208564758300775,-0.0009623803198337,-0.006330547854304301
2026-01-05 13:54:24.993,1.7676212649988593e+18,19.646859375,0.0361003875732421,-0.00946290791034695,-0.006330547854304301
2026-01-05 13:54:25.026,1.7676212650389747e+18,19.686974609375,0.038492202758789,-0.0009623803198337,-0.0094357877969741
2026-01-05 13:54:25.059,1.7676212650790838e+18,19.727083740234374,0.038492202758789,-0.0009623803198337,-0.011948712170124
2026-01-05 13:54:25.092,1.767621265119195e+18,19.76719482421875,0.03729391098022455,-0.0025118999183177,-0.0094357877969741
2026-01-05 13:54:25.125,1.767621265139246e+18,19.78724609375,0.03729391098022455,-0.0025118999183177,-0.00699727237224575
2026-01-05 13:54:25.158,1.767621265169325e+18,19.817325073242188,0.03729391098022455,-0.0004782900214195,-0.0094357877969741
2026-01-05 13:54:25.191,1.7676212651994017e+18,19.847401611328124,0.03729391098022455,-0.0025118999183177,-0.0078621916472911
2026-01-05 13:54:25.224,1.7676212652395026e+18,19.887502685546878,0.03729391098022455,0.0019903481006622,-0.0077377706766128
2026-01-05 13:54:25.257,1.767621265279618e+18,19.9276181640625,0.04268692763359697,0.0019903481006622,-0.0078621916472911
2026-01-05 13:54:25.290,1.7676212653197284e+18,19.967728271484376,0.04268692763359697,0.0018025502578171409,-0.008297686774222511
2026-01-05 13:54:25.323,1.7676212653447997e+18,19.99279971882829,0.04268692763359697,-0.0018946807831525998,-0.0078621916472911
2026-01-05 13:54:25.356,1.7676212653698708e+18,20.017870971679688,0.0420899391174316,-0.0018946807831525998,-0.0077377706766128
2026-01-05 13:54:25.389,1.7676212654099868e+18,20.05798681640625,0.0396947860717773,-0.0018946807831525998,-0.008297686774222511
2026-01-05 13:54:25.422,1.7676212654400737e+18,20.08807373046875,0.0337114334106445,-0.0018946807831525998,-0.00048024952411645
2026-01-05 13:54:25.455,1.7676212654801884e+18,20.1281884765625,0.0337114334106445,-4.755519330505026e-05,-0.00018015876412389928
2026-01-05 13:54:25.488,1.7676212655202975e+18,20.16829736328125,0.0337114334106445,-4.755519330505026e-05,-0.00018015876412389928
2026-01-05 13:54:25.521,1.7676212655403482e+18,20.18834814453125,0.0385031700134277,-4.755519330505026e-05,-0.0106524266302585
2026-01-05 13:54:25.554,1.7676212655603988e+18,20.20839892578125,0.0385031700134277,-4.755519330505026e-05,-0.0106524266302585
2026-01-05 13:54:25.587,1.7676212656005112e+18,20.24851123046875,0.0385031700134277,-0.0044875182211399,-0.0106524266302585
2026-01-05 13:54:25.620,1.7676212656406292e+18,20.288629150390623,0.0361135005960175,-0.0044875182211399,-0.0106524266302585
2026-01-05 13:54:25.653,1.7676212656707195e+18,20.318719482421876,0.0361135005960175,-0.0011457711221839958,-0.0020786263048648
2026-01-05 13:54:25.686,1.7676212656957965e+18,20.343796606057342,0.0361135005960175,-0.0011457711221839958,-0.0020786263048648
2026-01-05 13:54:25.719,1.7676212657208735e+18,20.36887353515625,0.0361137390136718,-0.011860681697726201,-0.0020786263048648
2026-01-05 13:54:25.752,1.767621265760986e+18,20.408986083984374,0.0361137390136718,-0.0122758448123931,-0.0029182843863964
2026-01-05 13:54:25.785,1.7676212658010906e+18,20.44909057617188,0.0385093688964843,-0.0122758448123931,-0.0099554471671581
2026-01-05 13:54:25.818,1.7676212658412017e+18,20.48920166015625,0.04209661483764645,-0.0122758448123931,-0.0099554471671581
2026-01-05 13:54:25.851,1.7676212658813176e+18,20.529317626953127,0.04209661483764645,-0.0101716630160808,-0.00693271867930885
2026-01-05 13:54:25.884,1.767621265901377e+18,20.549376953125,0.04209661483764645,-0.01005063578486435,-0.0036608465015888
2026-01-05 13:54:25.917,1.7676212659214362e+18,20.569436279296877,0.04209661483764645,-0.01005063578486435,-0.00693271867930885
2026-01-05 13:54:25.950,1.7676212659615506e+18,20.60955053710937,0.04209661483764645,-0.01005063578486435,-0.00693271867930885
2026-01-05 13:54:25.983,1.7676212660016678e+18,20.649667724609376,0.0385046005249023,-0.0099296085536479,-0.0130742490291595
2026-01-05 13:54:26.016,1.7676212660417736e+18,20.689773681640624,0.03611611391658845,-0.0148933678865432,-0.0180903226137161
2026-01-05 13:54:26.049,1.7676212660718536e+18,20.719853393554686,0.03611611391658845,-0.016109698318646025,-0.0187038946896791
2026-01-05 13:54:26.082,1.7676212660969262e+18,20.744925989174313,0.03611611391658845,-0.016109698318646025,-0.0187038946896791
2026-01-05 13:54:26.115,1.7676212661219988e+18,20.769998779296877,0.0337228775024414,-0.0098325442522764,-0.0217791944742202
2026-01-05 13:54:26.148,1.7676212661620938e+18,20.81009375,0.0337200164794921,-0.0074681900441646,-0.0217791944742202
2026-01-05 13:54:26.181,1.7676212662022116e+18,20.85021166992188,0.0337200164794921,-0.0055161155760288,-0.0077515877783298
2026-01-05 13:54:26.214,1.767621266242328e+18,20.890328125,0.0337200164794921,-0.0038258340209722003,-0.0002981126308441
2026-01-05 13:54:26.247,1.7676212662623954e+18,20.910395263671873,0.036111354827880804,-0.0038258340209722003,-0.0002981126308441
2026-01-05 13:54:26.280,1.7676212662824625e+18,20.93046240234375,0.0385055541992187,-0.0038258340209722003,0.0020227050408721
2026-01-05 13:54:26.313,1.7676212663225682e+18,20.97056811523437,0.0385103225708007,-0.0038258340209722003,-0.0002981126308441
2026-01-05 13:54:26.346,1.7676212663626877e+18,21.010687744140625,0.0408964157104492,-0.0001834779977798,-0.0013490580022335
2026-01-05 13:54:26.379,1.767621266402809e+18,21.05080908203125,0.0408964157104492,-0.0024555251002311,-0.0013490580022335
2026-01-05 13:54:26.412,1.7676212664429279e+18,21.090927978515627,0.0409021377563476,-0.0024555251002311,0.0057129971683025
2026-01-05 13:54:26.445,1.7676212664629806e+18,21.110980712890623,0.0408964157104492,-0.0174219608306884,-0.0013490580022335
2026-01-05 13:54:26.478,1.7676212664830408e+18,21.131040771484376,0.0408964157104492,-0.0094503574073314,-0.0013490580022335
2026-01-05 13:54:26.511,1.767621266523146e+18,21.17114599609375,0.0396990776062011,-0.0186114609241485,-0.0134983956813812
2026-01-05 13:54:26.544,1.767621266563264e+18,21.211263916015625,0.0396990776062011,-0.0186114609241485,-0.0134983956813812
2026-01-05 13:54:26.577,1.7676212665933537e+18,21.241353637695315,0.03670526712080114,-0.017657690508346056,-0.0134983956813812
2026-01-05 13:54:26.610,1.7676212666184328e+18,21.266432703016406,0.0384988784790039,-0.0137405544519424,-0.013083490136575341
2026-01-05 13:54:26.643,1.767621266643512e+18,21.291511962890624,0.03670526712080114,-0.0137405544519424,-0.0126756206154823
2026-01-05 13:54:26.676,1.767621266683646e+18,21.33164599609375,0.03670526712080114,-0.0137405544519424,-0.010234422981739
2026-01-05 13:54:26.709,1.7676212667237686e+18,21.3717685546875,0.0360956192016601,-0.0137405544519424,-0.010234422981739
2026-01-05 13:54:26.742,1.7676212667638817e+18,21.4118818359375,0.0360956192016601,-0.0141804404556751,-0.0103939063847064
2026-01-05 13:54:26.775,1.7676212668040038e+18,21.45200390625,0.03489780426025385,-0.0164866531267762,-0.0103939063847064
2026-01-05 13:54:26.808,1.7676212668290836e+18,21.477083557128907,0.03489780426025385,-0.0164866531267762,-0.0103939063847064
2026-01-05 13:54:26.841,1.7676212668541632e+18,21.502163208007815,0.03489780426025385,-0.0141804404556751,-0.0103939063847064
2026-01-05 13:54:26.874,1.7676212668842675e+18,21.532267578125,0.03489780426025385,-0.0110445842146873,-0.011094523593783325
2026-01-05 13:54:26.907,1.7676212669243942e+18,21.572394287109372,0.0360870361328125,-0.0110445842146873,-0.0094322152435779
2026-01-05 13:54:26.940,1.7676212669645207e+18,21.612520751953124,0.0432691574096679,-0.0110445842146873,-0.0094322152435779
2026-01-05 13:54:26.973,1.7676212670046313e+18,21.65263134765625,0.0432691574096679,-0.013347428292036,-0.0115835666656494
2026-01-05 13:54:27.006,1.7676212670297014e+18,21.677701513256913,0.0432691574096679,-0.013347428292036,-0.0115835666656494
2026-01-05 13:54:27.039,1.7676212670547715e+18,21.702771484375,0.038485050201416,-0.013347428292036,-0.015162494033575
2026-01-05 13:54:27.072,1.7676212670848617e+18,21.73286181640625,0.038485050201416,-0.0131025612354278,-0.015162494033575
2026-01-05 13:54:27.105,1.7676212671249833e+18,21.7729833984375,0.038485050201416,-0.007064078795698778,-0.0083406120538711
2026-01-05 13:54:27.138,1.7676212671651003e+18,21.81310034179688,0.0360927581787109,-0.0040331110358238,-0.0083406120538711
2026-01-05 13:54:27.171,1.767621267185168e+18,21.833167802446347,0.0396795272827148,-0.007064078795698778,-0.009954959154129
2026-01-05 13:54:27.204,1.7676212672052352e+18,21.853235107421877,0.0396795272827148,-0.0071453675627708,-0.007821344664441971
2026-01-05 13:54:27.237,1.7676212672553866e+18,21.903386596679688,0.0396795272827148,-0.0071453675627708,-0.009954959154129
2026-01-05 13:54:27.270,1.7676212672854822e+18,21.933482177734376,0.0312967300415039,-0.0071453675627708,-0.0126674175262451
2026-01-05 13:54:27.303,1.76762126732562e+18,21.973619873046875,0.0312967300415039,-0.011410623788833599,-0.0126674175262451
2026-01-05 13:54:27.336,1.7676212673657377e+18,22.01373779296875,0.0289030075073242,-0.012077547609806,-0.0126078203320503
2026-01-05 13:54:27.369,1.7676212673858012e+18,22.033801391601564,0.0289030075073242,-0.012077547609806,-0.0126078203320503
2026-01-05 13:54:27.402,1.767621267405865e+18,22.053864990234374,0.0289030075073242,-0.0031373053789138,-0.0125482231378555
2026-01-05 13:54:27.435,1.767621267445985e+18,22.09398510742188,0.0313014984130859,-0.0060830563306808,-0.0096161179244518
2026-01-05 13:54:27.468,1.7676212674860995e+18,22.134099365234373,0.033705711364746,-0.0031373053789138,-0.0096161179244518
2026-01-05 13:54:27.501,1.767621267526224e+18,22.174223876953125,0.038487434387207,-0.0031373053789138,-0.0096161179244518
2026-01-05 13:54:27.534,1.7676212675663488e+18,22.214348876953125,0.0384950637817382,-0.0060830563306808,-0.0096161179244518
2026-01-05 13:54:27.567,1.7676212675864028e+18,22.23440283203125,0.0384950637817382,-0.0060830563306808,-0.0096161179244518
2026-01-05 13:54:27.600,1.7676212676064666e+18,22.25446655273437,0.0384950637817382,0.0008848011493682,-0.0089932419359683
2026-01-05 13:54:27.633,1.76762126764658e+18,22.294580078125,0.0384950637817382,-0.0094256624579429,-0.0018137693405151
2026-01-05 13:54:27.666,1.7676212676866862e+18,22.334686279296875,0.0313215255737304,-0.0094256624579429,0.0002224221825599
2026-01-05 13:54:27.699,1.767621267726783e+18,22.374782958984376,0.0313215255737304,0.0008848011493682,-0.0018137693405151
2026-01-05 13:54:27.732,1.7676212677468372e+18,22.394837158203124,0.0313215255737304,-0.0128797590732574,-0.0032532401382923
2026-01-05 13:54:27.765,1.767621267766903e+18,22.414903076171875,0.0384998321533203,-0.0128797590732574,-0.0032532401382923
2026-01-05 13:54:27.798,1.7676212678070239e+18,22.45502392578125,0.040895938873290946,-0.0128797590732574,-0.0061774663627147
2026-01-05 13:54:27.831,1.7676212678471424e+18,22.495142333984376,0.0456800460815429,-0.0122085474431514,-0.0081745162606239
2026-01-05 13:54:27.864,1.767621267877227e+18,22.525226928710936,0.0432934853876107,-0.0122085474431514,-0.0081745162606239
2026-01-05 13:54:27.897,1.7676212679273672e+18,22.5753671875,0.0432934853876107,-0.002789975355102753,-0.0061774663627147
2026-01-05 13:54:27.930,1.76762126794742e+18,22.595419966164688,0.0409002304077148,-0.0049020648002624,-0.0061774663627147
2026-01-05 13:54:27.963,1.767621267967473e+18,22.615472900390625,0.0432934853876107,-0.0049020648002624,-0.0099725238978862
2026-01-05 13:54:27.996,1.7676212680176097e+18,22.665609741210936,0.0409049987792968,-0.0049020648002624,-0.0074299238622188
2026-01-05 13:54:28.029,1.7676212680476948e+18,22.69569482421875,0.0409049987792968,-0.0113253369927406,-0.0074299238622188
2026-01-05 13:54:28.062,1.7676212680878065e+18,22.73580639648437,0.0409049987792968,-0.0113253369927406,-0.0080250259488821
2026-01-05 13:54:28.095,1.7676212681279214e+18,22.77592138671875,0.0409049987792968,-0.0113253369927406,-0.0080250259488821
2026-01-05 13:54:28.128,1.7676212681529892e+18,22.800989257812503,0.0409049987792968,-0.010170293040573574,-0.0080250259488821
2026-01-05 13:54:28.161,1.7676212681780572e+18,22.826057128906253,0.0409097671508789,-0.010170293040573574,-0.0080250259488821
2026-01-05 13:54:28.194,1.7676212682081377e+18,22.8561376953125,0.0409097671508789,-0.009015249088406549,-0.0181919038295745
2026-01-05 13:54:28.227,1.7676212682482465e+18,22.89624658203125,0.0409116744995117,-0.009015249088406549,-0.0181919038295745
2026-01-05 13:54:28.260,1.7676212682883638e+18,22.93636376953125,0.0433025267297173,-0.012100847297217157,-0.01545380296583856
2026-01-05 13:54:28.293,1.7676212683084227e+18,22.95642252961805,0.0409116744995117,-0.017542790621519,-0.0119520016014575
2026-01-05 13:54:28.326,1.7676212683284815e+18,22.9764814453125,0.0433025267297173,-0.017542790621519,-0.01545380296583856
2026-01-05 13:54:28.359,1.7676212683685947e+18,23.0165947265625,0.0433025267297173,-0.017542790621519,-0.01545380296583856
2026-01-05 13:54:28.392,1.767621268408718e+18,23.056718017578124,0.0409021377563476,-0.017542790621519,-0.0119520016014575
2026-01-05 13:54:28.425,1.7676212684488957e+18,23.096895751953124,0.0409021377563476,0.007534536417219011,-0.011923555525700716
2026-01-05 13:54:28.458,1.7676212684890076e+18,23.137007568359376,0.043265875163577286,0.007534536417219011,-0.011923555525700716
2026-01-05 13:54:28.491,1.7676212685090683e+18,23.157068315115616,0.043265875163577286,0.007534536417219011,-0.006035118800800016
2026-01-05 13:54:28.524,1.767621268529129e+18,23.17712890625,0.0528192520141601,0.0069401624368331935,-0.005830934390776559
2026-01-05 13:54:28.557,1.767621268569257e+18,23.217257080078124,0.0528192520141601,0.006642975446640284,-0.00572884218576483
2026-01-05 13:54:28.590,1.7676212686093855e+18,23.25738549804688,0.0528192520141601,0.006345788456447376,-0.0056267499807531015
2026-01-05 13:54:28.623,1.7676212686495186e+18,23.2975185546875,0.0312738418579101,0.006048599160799406,-0.005524656983751822
2026-01-05 13:54:28.656,1.7676212686695782e+18,23.317578247070312,0.0312738418579101,0.005751409865151436,-0.005422563986750543
2026-01-05 13:54:28.689,1.767621268689638e+18,23.337637939453124,0.0312738418579101,,
2026-01-05 13:54:28.722,1.7676212687297597e+18,23.377759765625,0.0456409454345703,,-0.0041974559426307
2026-01-05 13:54:28.755,1.7676212687698875e+18,23.417887451171875,0.0504341125488281,,-0.00693559265625374
2026-01-05 13:54:28.788,1.767621268810008e+18,23.458008056640622,0.0504341125488281,0.0009964088002446525,-0.00967372936987678
2026-01-05 13:54:28.821,1.7676212688501222e+18,23.498122314453123,0.04565184770168993,0.0010799533530907062,-0.008036951741533098
2026-01-05 13:54:28.854,1.767621268870182e+18,23.518181840501505,0.0480432510375976,0.00116349790593676,-0.006400174113189416
2026-01-05 13:54:28.887,1.7676212688902413e+18,23.5382412109375,0.0480432510375976,0.0012470424587828137,-0.006400174113189416
2026-01-05 13:54:28.920,1.7676212689303887e+18,23.578388671875,0.04565184770168993,0.0012470424587828137,-0.006400174113189416
2026-01-05 13:54:28.953,1.7676212689705055e+18,23.61850537109375,0.0384788513183593,0.0014141315644749216,-0.006400174113189416
2026-01-05 13:54:28.986,1.7676212690005965e+18,23.64859631347656,0.04506182670593255,0.0016647658711175376,-0.012194186648014851
2026-01-05 13:54:29.019,1.7676212690507587e+18,23.69875854492188,0.04506182670593255,0.00454105064272875,-0.0194661849114877
2026-01-05 13:54:29.052,1.767621269075835e+18,23.723834899902347,0.0384788513183593,0.005720063438822754,-0.022664124909357177
2026-01-05 13:54:29.085,1.767621269100911e+18,23.748911254882813,0.04506182670593255,0.004189881217102108,-0.022664124909357177
2026-01-05 13:54:29.118,1.7676212691310047e+18,23.779004638671875,0.04506182670593255,0.004189881217102108,-0.023682629323110306
2026-01-05 13:54:29.151,1.7676212691711468e+18,23.819146728515623,0.03608322143554685,-4.946313533443162e-05,-0.02164562839668323
2026-01-05 13:54:29.184,1.7676212692112604e+18,23.85926049804688,0.03608322143554685,-0.008528151840207509,-0.01859013885866139
2026-01-05 13:54:29.217,1.7676212692313175e+18,23.879317504882813,0.03608322143554685,-0.018739927186862744,-0.016164145662211884
2026-01-05 13:54:29.250,1.7676212692513746e+18,23.89937451171875,0.0360774993896484,-0.022206119912798007,-0.015386142302304501
2026-01-05 13:54:29.283,1.7676212692914885e+18,23.939488525390622,0.03369188308715815,-0.022206119912798007,-0.014997139113498734
2026-01-05 13:54:29.316,1.7676212693315983e+18,23.979598388671874,0.0336885452270507,-0.022206119912798007,-0.0142191387712955
2026-01-05 13:54:29.349,1.767621269361687e+18,24.009687133789065,0.0336885452270507,-0.01719364337623113,-0.014057749394599047
2026-01-05 13:54:29.382,1.7676212694118262e+18,24.059826171875,0.03369188308715815,-0.009674909129009873,-0.01397705408025445
2026-01-05 13:54:29.415,1.7676212694318807e+18,24.079880859375,0.03608274459838865,-0.004596591964158923,-0.013896358765909852
2026-01-05 13:54:29.448,1.7676212694519355e+18,24.099935546875,0.0360898971557617,-0.004464949592332656,-0.013815664077561626
2026-01-05 13:54:29.481,1.7676212694920438e+18,24.14004370117188,0.0408763885498046,-0.004464949592332656,-0.013734969389213399
2026-01-05 13:54:29.514,1.7676212695321446e+18,24.18014453125,0.0408763885498046,-0.0043991284064195234,
2026-01-05 13:54:29.547,1.7676212695722532e+18,24.220253173828127,0.0360898971557617,-0.004267486034593257,-0.01276663187704194
2026-01-05 13:54:29.580,1.76762126960233e+18,24.250330200195314,0.0300989151000976,-0.004066801163735045,-0.011127855347349015
2026-01-05 13:54:29.613,1.7676212696274004e+18,24.275400476488,0.029501440458350993,-0.004066801163735045,-0.00948907881765609
2026-01-05 13:54:29.646,1.767621269652471e+18,24.300470947265627,0.029501440458350993,-0.0041639220432351225,-0.007850315000822278
2026-01-05 13:54:29.679,1.7676212696925875e+18,24.34058740234375,0.0289039611816406,-0.0042610429227352,-0.007850315000822278
2026-01-05 13:54:29.712,1.7676212697327002e+18,24.3807001953125,0.0289039611816406,-0.0064542777836322,-0.006211551183988467
2026-01-05 13:54:29.745,1.767621269772818e+18,24.42081787109375,0.0408716201782226,-0.006639392687486806,-0.004572787367154656
2026-01-05 13:54:29.778,1.7676212697928714e+18,24.440871337890623,0.0432653427124023,-0.0068245090273870886,-0.0029340235503208436
2026-01-05 13:54:29.811,1.7676212698129306e+18,24.4609306640625,0.0432653427124023,-0.006731950857436947,0.0134536400437355
2026-01-05 13:54:29.844,1.767621269853042e+18,24.5010419921875,0.0432653427124023,-0.0068245090273870886,0.00781802339954407
2026-01-05 13:54:29.877,1.7676212698931453e+18,24.54114526367188,0.0384788513183593,-0.0069170664793143915,0.0021824067553526394
2026-01-05 13:54:29.910,1.767621269933255e+18,24.5812548828125,0.0336866378784179,-0.007009623931241694,-0.0034531661703700953
2026-01-05 13:54:29.943,1.7676212699733686e+18,24.62136865234375,0.0312967300415039,-0.0079351998865604,-0.00611482374370095
2026-01-05 13:54:29.976,1.7676212699934205e+18,24.64142065429688,0.030089831991529623,-0.0183487050235271,-0.00611482374370095
2026-01-05 13:54:30.009,1.7676212700134802e+18,24.66148022460937,0.030089831991529623,-0.0137263499200344,-0.00908873909609283
2026-01-05 13:54:30.042,1.7676212700535852e+18,24.701585205078125,0.030089831991529623,-0.0162956188739866,-0.0091664306819438
2026-01-05 13:54:30.075,1.7676212700936893e+18,24.741689453125,0.031287670135498,-0.018864887827938798,-0.00611482374370095
2026-01-05 13:54:30.108,1.7676212701337964e+18,24.78179638671875,0.03607177734375,-0.024003425735843194,0.0081302374601364
2026-01-05 13:54:30.141,1.7676212701638838e+18,24.8118837890625,0.03607177734375,-0.024003425735843194,-0.008716421201825149
2026-01-05 13:54:30.174,1.767621270193976e+18,24.84197607421875,0.03487634658813475,-0.024003425735843194,-0.0028695976361632746
2026-01-05 13:54:30.207,1.767621270224065e+18,24.87206494140625,0.031287670135498,-0.024003425735843194,0.0029772259294986
2026-01-05 13:54:30.240,1.7676212702541632e+18,24.9021630859375,0.0312862396240234,-0.02155581985910727,-0.0028695976361632746
2026-01-05 13:54:30.273,1.7676212702942858e+18,24.94228588867188,0.03009225329957048,-0.0177627280354499,-0.003144772715494582
2026-01-05 13:54:30.306,1.7676212703343972e+18,24.98239721679688,0.03009225329957048,-0.002182832233369309,-0.003144772715494582
2026-01-05 13:54:30.339,1.7676212703544486e+18,25.002448564102597,0.03009225329957048,-0.002182832233369309,-0.0084071364682659
2026-01-05 13:54:30.372,1.7676212703744998e+18,25.02249975585937,0.0336809158325195,-0.002182832233369309,-0.0084071364682659
2026-01-05 13:54:30.405,1.7676212704146153e+18,25.062615234375,0.0336828231811523,-0.0105989500880241,-0.0084071364682659
2026-01-05 13:54:30.438,1.7676212704547338e+18,25.10273388671875,0.0336866378784179,-0.0105989500880241,-0.0079772919416427
2026-01-05 13:54:30.471,1.7676212704948603e+18,25.1428603515625,0.036076545715332,-0.0105989500880241,-0.003990347031503875
2026-01-05 13:54:30.504,1.7676212705249546e+18,25.172954833984377,0.0384674072265625,-0.00676051154732705,-3.4021213650495263e-06
2026-01-05 13:54:30.537,1.7676212705500326e+18,25.198032714843755,0.038477420806884696,-0.00676051154732705,0.004796183202415675
2026-01-05 13:54:30.570,1.7676212705751107e+18,25.22311059570313,0.0384788513183593,0.0011033546179532745,0.0095957685261964
2026-01-05 13:54:30.603,1.7676212706152243e+18,25.26322436523437,0.0384788513183593,0.0011033546179532745,0.0095957685261964
2026-01-05 13:54:30.636,1.7676212706553457e+18,25.303345703125,0.0384788513183593,-0.009802820726982317,0.0095957685261964
2026-01-05 13:54:30.669,1.7676212706854318e+18,25.333431640625,0.0384788513183593,-0.009802820726982317,0.00299946444727053
2026-01-05 13:54:30.702,1.767621270710505e+18,25.358504857995314,0.0384788513183593,-0.0053867250680923,0.00299946444727053
2026-01-05 13:54:30.735,1.7676212707355779e+18,25.383577880859374,0.0360889434814453,-0.009802820726982317,0.00299946444727053
2026-01-05 13:54:30.768,1.7676212707857167e+18,25.433716674804685,0.0384807586669921,-0.0053867250680923,0.00017268438188028801
2026-01-05 13:54:30.801,1.7676212708158044e+18,25.463804443359376,0.042069911956787054,0.004925252218207969,0.00017268438188028801
2026-01-05 13:54:30.834,1.7676212708559135e+18,25.50391357421875,0.04207134246826165,0.004925252218207969,-0.0016753464005887734
2026-01-05 13:54:30.867,1.7676212708860032e+18,25.534003295898437,0.04266762733459468,-0.0010140991230825588,-0.0016753464005887734
2026-01-05 13:54:30.900,1.7676212709110807e+18,25.55908074951172,0.04266762733459468,-0.0007828263173479931,-0.0056742839515208495
2026-01-05 13:54:30.933,1.7676212709361582e+18,25.584158203125,0.042069911956787054,-0.0007828263173479931,-0.0056742839515208495
2026-01-05 13:54:30.966,1.7676212709863122e+18,25.634312255859378,0.0360822677612304,-0.0010140991230825588,-0.0056742839515208495
2026-01-05 13:54:30.999,1.767621271016408e+18,25.664407958984373,0.0336875915527343,-0.0010140991230825588,-0.0081256479024887
2026-01-05 13:54:31.032,1.7676212710565294e+18,25.704529296875,0.0336875915527343,-0.0053385160863399,-0.01171754673123355
2026-01-05 13:54:31.065,1.7676212710966408e+18,25.744640869140625,0.03369183664689251,-0.009794039392622982,-0.014297427989890643
2026-01-05 13:54:31.098,1.7676212711166976e+18,25.76469767611,0.03369183664689251,-0.014249562698906064,-0.01171754673123355
2026-01-05 13:54:31.131,1.7676212711367547e+18,25.784754638671878,0.0420727729797363,-0.014249562698906064,-0.0081256479024887
2026-01-05 13:54:31.164,1.7676212711869696e+18,25.834969604492187,0.0456619262695312,-0.018705120569315767,-0.010351043212146402
2026-01-05 13:54:31.197,1.767621271217064e+18,25.86506396484375,0.0456619262695312,-0.018705120569315767,-0.010351043212146402
2026-01-05 13:54:31.230,1.7676212712571848e+18,25.90518481445313,0.04446506500244135,-0.01329318713396785,-0.007519805062736272
2026-01-05 13:54:31.263,1.767621271277245e+18,25.92524499511719,0.04446506500244135,-0.003755547106266,-0.0058633834123611
2026-01-05 13:54:31.296,1.767621271297305e+18,25.94530517578125,0.0432682037353515,-0.0102442987263202,-0.0058633834123611
2026-01-05 13:54:31.329,1.7676212713374185e+18,25.98541845703125,0.0432624816894531,-0.0102442987263202,-0.0056258887052536
2026-01-05 13:54:31.362,1.7676212713775378e+18,26.02553784179688,0.0432624816894531,-0.003755547106266,-0.0056258887052536
2026-01-05 13:54:31.395,1.7676212714076227e+18,26.055622802734376,0.0408668518066406,-0.0079578422009944,-0.0058633834123611
2026-01-05 13:54:31.428,1.767621271457765e+18,26.10576513671875,0.0408668518066406,-0.0102442987263202,-0.006592895835638
2026-01-05 13:54:31.461,1.7676212714778222e+18,26.125822265625,0.036081790924072196,-0.0079578422009944,-0.006592895835638
2026-01-05 13:54:31.494,1.7676212714978857e+18,26.1458857421875,0.0360803604125976,-0.0079578422009944,-0.006592895835638
2026-01-05 13:54:31.527,1.767621271538003e+18,26.1860029296875,0.0336866378784179,-0.0079578422009944,-0.0141363069415092
2026-01-05 13:54:31.560,1.7676212715781082e+18,26.226108154296877,0.0336866378784179,-0.0058178529143333,-0.0042143464088439
2026-01-05 13:54:31.593,1.7676212716182272e+18,26.26622729492188,0.03488159179687495,-0.0058178529143333,-0.0042143464088439
2026-01-05 13:54:31.626,1.7676212716483185e+18,26.296318603515626,0.03488159179687495,-0.011340737877497906,-0.010473263945229936
2026-01-05 13:54:31.659,1.7676212716733983e+18,26.321398290637596,0.04146721533290645,-0.0058178529143333,-0.0188846103847026
2026-01-05 13:54:31.692,1.7676212716984778e+18,26.346477783203124,0.04146721533290645,0.0008336827158927,-0.010473263945229936
2026-01-05 13:54:31.725,1.7676212717386056e+18,26.38660546875,0.04146721533290645,-0.003713411279022751,-0.010473263945229936
2026-01-05 13:54:31.758,1.7676212717787284e+18,26.426728515625,0.04087400436401365,-0.003713411279022751,0.0009316690266132
2026-01-05 13:54:31.791,1.7676212718188508e+18,26.46685083007813,0.04087400436401365,0.0008336827158927,0.00201776996254915
2026-01-05 13:54:31.824,1.767621271838907e+18,26.48690698242188,0.0360879898071289,-0.003713411279022751,0.00201776996254915
2026-01-05 13:54:31.857,1.7676212718589632e+18,26.506963134765623,0.04087400436401365,-0.00863936692312703,0.0009316690266132
2026-01-05 13:54:31.890,1.767621271899079e+18,26.54707885742188,0.0456600189208984,-0.00863936692312703,0.00201776996254915
2026-01-05 13:54:31.923,1.7676212719392003e+18,26.5872001953125,0.0456600189208984,-0.00863936692312703,-0.00301294028759
2026-01-05 13:54:31.956,1.7676212719793152e+18,26.627315185546877,0.0312938690185546,-0.014508958869739054,-0.00301294028759
2026-01-05 13:54:31.989,1.7676212720194273e+18,26.66742724609375,0.0312871932983398,-0.014508958869739054,0.0023761019110679
2026-01-05 13:54:32.022,1.7676212720394908e+18,26.68749080047807,0.0312871932983398,-0.0082568675279617,0.0023761019110679
2026-01-05 13:54:32.055,1.7676212720595543e+18,26.70755419921875,0.0312871932983398,-0.0082568675279617,-0.0011067353188991
2026-01-05 13:54:32.088,1.7676212720996616e+18,26.74766162109375,0.0384712219238281,-0.0082568675279617,-0.0011067353188991
2026-01-05 13:54:32.121,1.7676212721397757e+18,26.787775634765627,0.040863037109375,-0.0082568675279617,-0.0199210718274116
2026-01-05 13:54:32.154,1.7676212721798863e+18,26.82788623046875,0.040863037109375,-0.0080228149890899,-0.0199210718274116
2026-01-05 13:54:32.187,1.7676212722199951e+18,26.8679951171875,0.0384712219238281,-0.01118759091754341,-0.0199210718274116
2026-01-05 13:54:32.220,1.7676212722400502e+18,26.88805017089844,0.0384712219238281,-0.01118759091754341,-0.015366431325674
2026-01-05 13:54:32.253,1.7676212722601052e+18,26.908105224609372,0.03727054595947265,-0.0097938105463981,-0.0108117908239364
2026-01-05 13:54:32.286,1.767621272300213e+18,26.948212890625,0.0360670089721679,-0.006692316383123401,-0.0108117908239364
2026-01-05 13:54:32.319,1.767621272340333e+18,26.9883330078125,0.0360670089721679,0.004216449335217499,-0.0108117908239364
2026-01-05 13:54:32.352,1.76762127237042e+18,27.018420043945312,0.037266492843627874,0.00768058840185405,-0.008957021194760901
2026-01-05 13:54:32.385,1.7676212723954934e+18,27.043493225097656,0.0360670089721679,0.004216449335217499,-0.0101194567978382
2026-01-05 13:54:32.418,1.7676212724205665e+18,27.06856640625,0.037266492843627874,0.004216449335217499,-0.014082094654440875
2026-01-05 13:54:32.451,1.7676212724606835e+18,27.10868359375,0.037266492843627874,0.00768058840185405,-0.0124563071876764
2026-01-05 13:54:32.484,1.767621272500801e+18,27.148801025390625,0.037255764007568345,1.21295452117e-05,-0.0101194567978382
2026-01-05 13:54:32.517,1.767621272530912e+18,27.178911987304687,0.0360565185546875,1.21295452117e-05,-0.0101194567978382
2026-01-05 13:54:32.550,1.767621272581052e+18,27.229052001953125,0.0360565185546875,-0.0024946657940745124,-0.0124563071876764
2026-01-05 13:54:32.583,1.767621272606118e+18,27.254117797851563,0.0336589813232421,-0.0024946657940745124,-0.006721747107803824
2026-01-05 13:54:32.616,1.7676212726311836e+18,27.27918359375,0.0336589813232421,-0.0053622163832187,-0.006721747107803824
2026-01-05 13:54:32.649,1.7676212726612682e+18,27.30926831054688,0.0336589813232421,-0.0024946657940745124,-0.01761670783162115
2026-01-05 13:54:32.682,1.7676212727013737e+18,27.34937377929688,0.0336589813232421,-0.0024946657940745124,-0.023423399776220252
2026-01-05 13:54:32.715,1.767621272741482e+18,27.38948193359375,0.0336589813232421,-0.0014298884473659124,-0.023423399776220252
2026-01-05 13:54:32.748,1.7676212727615462e+18,27.409546142578122,0.0336599349975585,0.0069596171379089,-0.023423399776220252
2026-01-05 13:54:32.781,1.7676212727816102e+18,27.4296103515625,0.0336570739746093,0.0069596171379089,-0.0150885619223117
2026-01-05 13:54:32.814,1.7676212728217213e+18,27.46972143554688,0.0336570739746093,0.0069596171379089,-0.0149929337203502
2026-01-05 13:54:32.847,1.7676212728618388e+18,27.5098388671875,0.0360546112060546,0.0019530989229678995,-0.0106836929917335
2026-01-05 13:54:32.880,1.7676212729019535e+18,27.54995361328125,0.0360546112060546,0.0019530989229678995,-0.0102100409567356
2026-01-05 13:54:32.913,1.7676212729420675e+18,27.5900673828125,0.03366089795659889,0.0019530989229678995,-0.002594418823719
2026-01-05 13:54:32.946,1.767621272962122e+18,27.61012199252477,0.03366089795659889,-0.0002863556146621,-0.002594418823719
2026-01-05 13:54:32.979,1.7676212729821768e+18,27.6301767578125,0.0336580276489257,0.005700417855882193,-0.002594418823719
2026-01-05 13:54:33.012,1.7676212730222804e+18,27.670280517578124,0.0312671661376953,0.0116872377693653,-0.0052460916340351
2026-01-05 13:54:33.045,1.767621273062386e+18,27.710385986328124,0.031264305114746,0.0116872377693653,-0.006226909346878551
2026-01-05 13:54:33.078,1.7676212730924698e+18,27.7404697265625,0.03007268905639645,-0.0019846111536026,-0.009674759581685
2026-01-05 13:54:33.111,1.767621273142598e+18,27.790597900390622,0.03007268905639645,0.0013662278652191,-0.006226909346878551
2026-01-05 13:54:33.144,1.76762127316265e+18,27.81065002441406,0.03007268905639645,0.0013662278652191,-0.009674759581685
2026-01-05 13:54:33.177,1.767621273182702e+18,27.8307021484375,0.0336627960205078,-0.0019846111536026,-0.0145228505134582
2026-01-05 13:54:33.210,1.76762127322281e+18,27.87081005859375,0.0336627960205078,0.0013662278652191,-0.009674759581685
2026-01-05 13:54:33.243,1.7676212732629197e+18,27.910919677734373,0.0336627960205078,0.0013662278652191,-0.005677568491959686
2026-01-05 13:54:33.276,1.767621273303039e+18,27.9510390625,0.03247356414794915,2.7881520008364927e-05,-0.0147631093859672
2026-01-05 13:54:33.309,1.7676212733281175e+18,27.9761175174719,0.03247356414794915,-0.0026411041617393,-0.005677568491959686
2026-01-05 13:54:33.342,1.767621273353196e+18,28.001196166992187,0.03247356414794915,-0.0026411041617393,-0.0052694603800773
2026-01-05 13:54:33.375,1.7676212733832868e+18,28.03128686523437,0.033670425415039,-0.0145116541534662,-0.005677568491959686
2026-01-05 13:54:33.408,1.7676212734234002e+18,28.071400146484372,0.0360651016235351,-0.0145116541534662,-0.0118610933423042
2026-01-05 13:54:33.441,1.7676212734635144e+18,28.11151440429688,0.0384597778320312,-0.0026411041617393,-0.008262298080850678
2026-01-05 13:54:33.474,1.7676212735036206e+18,28.15162060546875,0.0384597778320312,-0.0003550462424755,-0.008262298080850678
2026-01-05 13:54:33.507,1.7676212735236764e+18,28.171676469393553,0.0336732864379882,-0.0003550462424755,-0.0118610933423042
2026-01-05 13:54:33.540,1.7676212735437322e+18,28.191732177734377,0.0336790084838867,0.0012282580137252,-0.0118610933423042
2026-01-05 13:54:33.573,1.767621273593879e+18,28.241879028320312,0.0336790084838867,-0.0003550462424755,-0.0093070864677429
2026-01-05 13:54:33.606,1.7676212736239703e+18,28.27197021484375,0.0336790084838867,-0.0003550462424755,-0.0093070864677429
2026-01-05 13:54:33.639,1.7676212736640911e+18,28.312091064453124,0.035476922988891574,0.0004456434398889498,-0.0152794625610113
2026-01-05 13:54:33.672,1.7676212736941752e+18,28.342175170898436,0.035476922988891574,0.0012282580137252,-0.0160100311040878
2026-01-05 13:54:33.705,1.7676212737192415e+18,28.36724139404297,0.0360803604125976,0.0004456434398889498,-0.015990175306797
2026-01-05 13:54:33.738,1.7676212737443077e+18,28.3923076171875,0.0360803604125976,0.0004456434398889498,-0.015990175306797
2026-01-05 13:54:33.771,1.7676212737844196e+18,28.432419677734377,0.0360803604125976,-0.0016970485448837,-0.0187906362116336
2026-01-05 13:54:33.804,1.7676212738145088e+18,28.4625087890625,0.03967189788818355,-0.0100299678742885,-0.015990175306797
2026-01-05 13:54:33.837,1.767621273864655e+18,28.51265502929688,0.03967189788818355,-0.0100299678742885,-0.01479997986903801
2026-01-05 13:54:33.870,1.7676212738847101e+18,28.532710205078125,0.0408735275268554,-0.0057762861251831,-0.0108093544840812
2026-01-05 13:54:33.903,1.767621273904771e+18,28.55277099609375,0.0432643890380859,-0.0057762861251831,-0.01479997986903801
2026-01-05 13:54:33.936,1.7676212739448858e+18,28.5928857421875,0.0408754348754882,-0.0057762861251831,-0.0108093544840812
2026-01-05 13:54:33.969,1.7676212739850296e+18,28.633029541015624,0.0408735275268554,-0.0039511732757091,-0.0062151588499546
2026-01-05 13:54:34.002,1.767621274025145e+18,28.67314501953125,0.0408735275268554,0.00177734997123475,-0.0021443143486976
2026-01-05 13:54:34.035,1.7676212740652687e+18,28.713268798828125,0.0408754348754882,0.0002211946994066,-0.0021443143486976
2026-01-05 13:54:34.068,1.7676212740903424e+18,28.73834228515625,0.038482666015624944,0.0002211946994066,-0.0021443143486976
2026-01-05 13:54:34.101,1.7676212741154158e+18,28.763415771484375,0.038482666015624944,0.0002211946994066,-0.0021443143486976
2026-01-05 13:54:34.134,1.7676212741555364e+18,28.803536376953126,0.0432710647583007,-0.0033711548894643,-0.0038134753704071
2026-01-05 13:54:34.167,1.767621274185635e+18,28.833635009765626,0.0432710647583007,-0.0033711548894643,-0.0038882046937942
2026-01-05 13:54:34.200,1.767621274225803e+18,28.873802978515624,0.038482666015624944,-0.0033711548894643,-0.012614794075488999
2026-01-05 13:54:34.233,1.7676212742659128e+18,28.91391284179688,0.033696174621582,-0.0075201205909252,-0.0038882046937942
2026-01-05 13:54:34.266,1.76762127428597e+18,28.933969970703124,0.0313043594360351,-0.0075201205909252,-0.0080063790082931
2026-01-05 13:54:34.299,1.7676212743060352e+18,28.95403515625,0.0289134979248046,0.004385907202959,-0.0080063790082931
2026-01-05 13:54:34.332,1.7676212743461645e+18,28.99416455078125,0.0289134979248046,-0.0218433253467082,-0.0080063790082931
2026-01-05 13:54:34.365,1.7676212743862894e+18,29.034289306640623,0.0289134979248046,-0.0218433253467082,0.0003399327397346514
2026-01-05 13:54:34.398,1.7676212744264102e+18,29.07441015625,0.0361032485961914,-0.01258018612861625,-0.0080063790082931
2026-01-05 13:54:34.431,1.767621274446466e+18,29.0944658203125,0.0361032485961914,-0.0081844925880432,-0.0019502900540828
2026-01-05 13:54:34.464,1.7676212744665216e+18,29.114521484375,0.0361032485961914,-0.01258018612861625,-0.0019502900540828
2026-01-05 13:54:34.497,1.76762127450664e+18,29.154639892578125,0.0361032485961914,-0.0081844925880432,-0.0019502900540828
2026-01-05 13:54:34.530,1.7676212745467686e+18,29.1947685546875,0.0361032485961914,-0.0047993138432502,-0.0042865723371505
2026-01-05 13:54:34.563,1.7676212745868964e+18,29.234896484375,0.0337066650390625,-0.0081844925880432,-0.0042865723371505
2026-01-05 13:54:34.596,1.7676212746270203e+18,29.275020263671877,0.0337066650390625,-0.0047993138432502,-0.00862536765635015
2026-01-05 13:54:34.629,1.7676212746470874e+18,29.29508740234375,0.0384869575500488,-0.001424341462552525,-0.0094789080321788
2026-01-05 13:54:34.662,1.7676212746771702e+18,29.325170288085936,0.0384817123413085,-0.001424341462552525,-0.0100652314722538
2026-01-05 13:54:34.695,1.767621274707259e+18,29.3552587890625,0.0384817123413085,-0.001424341462552525,-0.0100652314722538
2026-01-05 13:54:34.728,1.7676212747473772e+18,29.395377197265624,0.0384869575500488,-0.001424341462552525,-0.009424580899529952
2026-01-05 13:54:34.761,1.7676212747774648e+18,29.42546472167969,0.04087422421961825,-0.0024673481545612174,-0.0100652314722538
2026-01-05 13:54:34.794,1.7676212748025382e+18,29.450538049718347,0.0384817123413085,-0.0024673481545612174,-0.009424580899529952
2026-01-05 13:54:34.827,1.7676212748276116e+18,29.475611572265624,0.0384740829467773,0.0001959279179573,-0.0086362212896347
2026-01-05 13:54:34.860,1.76762127486773e+18,29.51572998046875,0.0384769439697265,0.0021351650357246,-0.009424580899529952
2026-01-05 13:54:34.893,1.7676212749078508e+18,29.555850830078125,0.0384769439697265,0.0021351650357246,-0.0086362212896347
2026-01-05 13:54:34.926,1.767621274947961e+18,29.595961181640625,0.0384769439697265,0.0048463735729456,-0.0086362212896347
2026-01-05 13:54:34.959,1.7676212749780465e+18,29.626046508789063,0.03967666625976555,0.0021351650357246,-0.009224333334714174
2026-01-05 13:54:34.992,1.7676212750031212e+18,29.65112115478516,0.04267072677612298,-0.005250989459455001,-0.009224333334714174
2026-01-05 13:54:35.025,1.7676212750281958e+18,29.67619580078125,0.04267072677612298,-0.005250989459455001,-0.008132559247314949
2026-01-05 13:54:35.058,1.767621275068315e+18,29.71631494140625,0.0432662963867187,-0.0011001490056514,-0.009224333334714174
2026-01-05 13:54:35.091,1.767621275108442e+18,29.75644213867188,0.0432672500610351,-0.005250989459455001,-0.0067258886992931
2026-01-05 13:54:35.124,1.767621275148556e+18,29.79655615234375,0.0432662963867187,-0.004897139840855929,-0.0067258886992931
2026-01-05 13:54:35.157,1.767621275188696e+18,29.83669604492188,0.04027388390516226,-0.0031840074807404995,-0.008057460201097192
2026-01-05 13:54:35.190,1.7676212752137674e+18,29.861767553301185,0.04027388390516226,-0.0048750713467598,-0.0111819934099912
2026-01-05 13:54:35.223,1.7676212752388388e+18,29.8868388671875,0.0384807586669921,-0.0048750713467598,-0.008057460201097192
2026-01-05 13:54:35.256,1.7676212752789504e+18,29.926950561523437,0.0348906517028808,-0.0046204179525375,-0.008057460201097192
2026-01-05 13:54:35.289,1.767621275309035e+18,29.95703491210937,0.0348901748657226,-0.0046204179525375,-0.0046867728233337
2026-01-05 13:54:35.322,1.767621275339115e+18,29.987114990234375,0.0348906517028808,-0.0046204179525375,-0.0046867728233337
2026-01-05 13:54:35.355,1.7676212753692014e+18,30.017201416015624,0.0360898971557617,-0.0046204179525375,-0.0046867728233337
2026-01-05 13:54:35.388,1.767621275389266e+18,30.037265869140622,0.0360898971557617,-0.0051023848354816,-0.01615523546934125
2026-01-05 13:54:35.421,1.7676212754394035e+18,30.087403686523437,0.0408735275268554,-0.0097775068134069,-0.0169560201466083
2026-01-05 13:54:35.454,1.7676212754694991e+18,30.1174990234375,0.0408735275268554,-0.0108760371804237,-0.0169560201466083
2026-01-05 13:54:35.487,1.7676212755096225e+18,30.15762255859375,0.0408735275268554,-0.0108760371804237,-0.01615523546934125
2026-01-05 13:54:35.520,1.7676212755497413e+18,30.1977412109375,0.0384712219238281,-0.0108760371804237,-0.012874286621809
2026-01-05 13:54:35.553,1.7676212755698022e+18,30.21780224609375,0.034878253936767495,-0.0070894975215196505,-0.012874286621809
2026-01-05 13:54:35.586,1.7676212755998976e+18,30.2478974609375,0.034878253936767495,-0.0033998079597949,-0.012874286621809
2026-01-05 13:54:35.619,1.7676212756299945e+18,30.277994384765623,0.0360784530639648,-0.0033029578626156,-0.0135199390351772
2026-01-05 13:54:35.652,1.767621275670146e+18,30.31814599609375,0.0360784530639648,-0.0005891695618629499,-0.0135199390351772
2026-01-05 13:54:35.685,1.7676212757002348e+18,30.34823486328125,0.0384769439697265,0.0006483644247055,-0.0135199390351772
2026-01-05 13:54:35.718,1.7676212757503908e+18,30.398390869140623,0.042068481445312444,0.0006483644247055,-0.0074853934347629
2026-01-05 13:54:35.751,1.7676212757704515e+18,30.41845166015625,0.042068481445312444,0.0044633895158767,-0.0038370713591575
2026-01-05 13:54:35.784,1.7676212757905124e+18,30.438512451171874,0.0384769439697265,0.0044633895158767,-0.0038370713591575
2026-01-05 13:54:35.817,1.7676212758306363e+18,30.47863623046875,0.0384683609008789,0.0044633895158767,-0.0038370713591575
2026-01-05 13:54:35.850,1.7676212758707566e+18,30.51875659179688,0.0360755920410156,0.0044633895158767,-0.0074853934347629
2026-01-05 13:54:35.883,1.7676212759108664e+18,30.558866455078125,0.0336804389953613,0.0033520053030031065,-0.0075837969779968
2026-01-05 13:54:35.916,1.7676212759359375e+18,30.5839375,0.0336804389953613,-0.0021566869691014004,-0.0124731361865997
2026-01-05 13:54:35.949,1.7676212759610086e+18,30.609008544921878,0.0336804389953613,3.26111912727e-05,-0.0097276642918586
2026-01-05 13:54:35.982,1.7676212760011308e+18,30.649130737304688,0.0336804389953613,-0.0021566869691014004,-0.012152682989835701
2026-01-05 13:54:36.015,1.767621276031224e+18,30.67922412109375,0.0336804389953613,-0.0050754938274622,-0.012152682989835701
2026-01-05 13:54:36.048,1.7676212760613166e+18,30.70931652832031,0.03367659644207427,-0.0050754938274622,-0.0097276642918586
2026-01-05 13:54:36.081,1.7676212761114675e+18,30.759467529296877,0.03367659644207427,-0.0092960000038146,-0.0016023479402065
2026-01-05 13:54:36.114,1.7676212761315261e+18,30.779526167313836,0.03367659644207427,-0.0092960000038146,-0.0016023479402065
2026-01-05 13:54:36.147,1.767621276151585e+18,30.7995849609375,0.0360689163208007,-0.0092960000038146,-0.0016023479402065
2026-01-05 13:54:36.180,1.7676212762017377e+18,30.84973791503906,0.0408582687377929,-0.0023456905037165,-0.012674447149038249
2026-01-05 13:54:36.213,1.767621276231834e+18,30.879834228515627,0.04205179214477535,0.0005390308797359748,-0.012674447149038249
2026-01-05 13:54:36.246,1.7676212762619264e+18,30.909926391601562,0.045043230056762674,0.0005390308797359748,-0.012674447149038249
2026-01-05 13:54:36.279,1.7676212762870062e+18,30.935006042480467,0.045043230056762674,0.0005390308797359748,-0.011893835850059925
2026-01-05 13:54:36.312,1.7676212763120858e+18,30.96008569335937,0.045043230056762674,0.0005390308797359748,-0.0065758414566516
2026-01-05 13:54:36.345,1.7676212763522048e+18,31.000204833984377,0.045043230056762674,0.0005390308797359748,-0.0065758414566516
2026-01-05 13:54:36.378,1.7676212763923407e+18,31.0403408203125,0.0456428527832031,-0.00100589543581,-0.0045836865901947
2026-01-05 13:54:36.411,1.76762127643246e+18,31.0804599609375,0.0432500839233398,0.0029609985649585,-0.0045836865901947
2026-01-05 13:54:36.444,1.7676212764725747e+18,31.12057470703125,0.038461685180664,0.0029609985649585,-0.009853882715106
2026-01-05 13:54:36.477,1.7676212764926316e+18,31.140631591796875,0.0432500839233398,0.0040315426886081,-0.0153643861413002
2026-01-05 13:54:36.510,1.7676212765126963e+18,31.1606962890625,0.0432500839233398,0.0040315426886081,-0.0154836699366569
2026-01-05 13:54:36.543,1.7676212765528197e+18,31.20081982421875,0.0384645462036132,0.0040315426886081,-0.0154836699366569
2026-01-05 13:54:36.576,1.7676212765929344e+18,31.240934326171875,0.038461685180664,-0.0010108239948749,-0.0153643861413002
2026-01-05 13:54:36.609,1.7676212766330417e+18,31.281041748046874,0.0336742401123046,-0.0010108239948749,-0.0150178633630275
2026-01-05 13:54:36.642,1.7676212766731564e+18,31.32115625,0.0336742401123046,-0.004422020359826381,-0.012861805036664
2026-01-05 13:54:36.675,1.7676212766932193e+18,31.341219316101178,0.0336732864379882,-0.004422020359826381,-0.012861805036664
2026-01-05 13:54:36.708,1.7676212767132823e+18,31.3612822265625,0.0336732864379882,-0.0033268816769123,-0.0078032854944467
2026-01-05 13:54:36.741,1.7676212767634263e+18,31.411426147460936,0.0336732864379882,-0.004422020359826381,-0.012861805036664
2026-01-05 13:54:36.774,1.767621276793514e+18,31.441513916015627,0.0336761474609375,-0.00729233026504515,-0.013860995881259351
2026-01-05 13:54:36.807,1.767621276833628e+18,31.4816279296875,0.0336761474609375,-0.0036238096654415,-0.013860995881259351
2026-01-05 13:54:36.840,1.7676212768536837e+18,31.501683715820313,0.03487730026245115,-0.0036238096654415,-0.01427316386252635
2026-01-05 13:54:36.873,1.7676212768737395e+18,31.521739501953125,0.0384674072265625,-0.0036238096654415,-0.0166274569928646
2026-01-05 13:54:36.906,1.7676212769138596e+18,31.561859619140623,0.0384683609008789,0.0009633395820856502,-0.01427316386252635
2026-01-05 13:54:36.939,1.767621276953971e+18,31.601970947265624,0.04086399078369135,0.0009633395820856502,-0.0096929389983415
2026-01-05 13:54:36.972,1.7676212769840558e+18,31.632055786132817,0.0408639907836914,0.0009633395820856502,-0.011414373199766478
2026-01-05 13:54:37.005,1.7676212770342164e+18,31.68221655273437,0.0408639907836914,-0.00159892439842225,-0.011414373199766478
2026-01-05 13:54:37.038,1.7676212770592852e+18,31.707285314521,0.0408639907836914,-0.0041487434696873375,-0.0096377339214086
2026-01-05 13:54:37.071,1.767621277084354e+18,31.732353881835937,0.0408639907836914,-0.0041487434696873375,-0.0096377339214086
2026-01-05 13:54:37.104,1.76762127711444e+18,31.76243994140625,0.0408639907836914,-0.00159892439842225,-0.0069254264235496
2026-01-05 13:54:37.137,1.767621277154548e+18,31.8025478515625,0.0408639907836914,-0.00159892439842225,-0.0068038254976272
