datetime,time,seconds_elapsed,z,y,x
2026-01-05 13:41:07.350,1.767620467370232e+18,0.163232177734375,0.4694600105285644,-0.4545879364013672,-0.780601978302002
2026-01-05 13:41:07.383,1.7676204673902897e+18,0.18328955078125,-0.00491666793823245,-0.08771347999572754,-1.035595178604126
2026-01-05 13:41:07.416,1.7676204674303767e+18,0.223376708984375,-0.0866384506225586,0.2791609764099121,-0.780601978302002
2026-01-05 13:41:07.449,1.767620467460482e+18,0.253482177734375,0.4694600105285644,0.34388029575347895,-0.780601978302002
2026-01-05 13:41:07.482,1.7676204675105946e+18,0.303594482421875,1.2280597686767578,0.34388029575347895,0.0666754245758056
2026-01-05 13:41:07.515,1.7676204675306404e+18,0.3236403365422261,-0.0866384506225586,0.5202274322509766,0.0666754245758056
2026-01-05 13:41:07.548,1.767620467550686e+18,0.34368603515625,1.4195381411472652,0.5202274322509766,0.0666754245758056
2026-01-05 13:41:07.581,1.7676204675907738e+18,0.383773681640625,1.861261367797852,0.2438247203826904,-0.6887269020080566
2026-01-05 13:41:07.614,1.7676204676308987e+18,0.423898681640625,1.861261367797852,-0.2193953990936279,-0.6887269020080566
2026-01-05 13:41:07.647,1.7676204676709932e+18,0.4639931640625,-0.3352036476135254,-0.41920387744903564,-0.6887269020080566
2026-01-05 13:41:07.680,1.767620467711095e+18,0.504094970703125,-0.3352036476135254,-0.6190123558044434,-0.6611056327819824
2026-01-05 13:41:07.713,1.7676204677361539e+18,0.52915380859375,-0.3352036476135254,-0.6190123558044434,-0.2351393699645996
2026-01-05 13:41:07.746,1.7676204677612127e+18,0.5542126464843751,-0.7146213054656982,-0.41920387744903564,0.01601386070251465
2026-01-05 13:41:07.779,1.7676204677912937e+18,0.584293701171875,-0.7574124336242676,-0.6190123558044434,-0.2351393699645996
2026-01-05 13:41:07.812,1.7676204678314043e+18,0.624404296875,-0.8244342803955078,-0.6190123558044434,-0.29542299790544835
2026-01-05 13:41:07.845,1.7676204678715126e+18,0.6645126953125,-0.8244342803955078,-0.4302483695547128,-0.2351393699645996
2026-01-05 13:41:07.878,1.767620467891559e+18,0.684559037715995,-0.8244342803955078,-0.0366530418395996,-0.2016205787658691
2026-01-05 13:41:07.911,1.7676204679116052e+18,0.704605224609375,-0.8244342803955078,-0.4302483695547128,-0.29542299790544835
2026-01-05 13:41:07.944,1.76762046795171e+18,0.7447099609375,-1.3172179500961225,-0.4302483695547128,-0.2016205787658691
2026-01-05 13:41:07.977,1.7676204679918042e+18,0.78480419921875,-0.69097900390625,-0.5028395652770996,0.40692734718322754
2026-01-05 13:41:08.010,1.7676204680319035e+18,0.824903564453125,-0.69097900390625,-0.7115933895111084,-0.2016205787658691
2026-01-05 13:41:08.043,1.7676204680619656e+18,0.8549655761718751,-0.7486004829406738,-1.255690574645996,-0.4346429109573364
2026-01-05 13:41:08.076,1.7676204680870246e+18,0.8800247802734376,-0.7486004829406738,-1.055093765258789,0.40692734718322754
2026-01-05 13:41:08.109,1.767620468112084e+18,0.905083984375,-0.7486004829406738,-1.055093765258789,0.40692734718322754
2026-01-05 13:41:08.142,1.767620468162177e+18,0.9551770019531249,-0.8062219619750977,-1.055093765258789,-0.4346429109573364
2026-01-05 13:41:08.175,1.7676204681922493e+18,0.985249267578125,-0.8062219619750977,0.0749688148498535,-1.2762131690979004
2026-01-05 13:41:08.208,1.7676204682223032e+18,1.01530322265625,-0.0918598175048827,0.3176462650299072,1.3073339462280271
2026-01-05 13:41:08.241,1.7676204682623875e+18,1.055387451171875,-0.8430558443069457,0.3176462650299072,1.3073339462280271
2026-01-05 13:41:08.274,1.767620468292452e+18,1.0854521484375,-0.5120275020599365,0.3176462650299072,1.3073339462280271
2026-01-05 13:41:08.307,1.7676204683125023e+18,1.105502197265625,-0.5120275020599365,-0.972785472869873,1.3073339462280271
2026-01-05 13:41:08.340,1.7676204683525888e+18,1.1455888671875,-0.5371489524841309,-0.972785472869873,1.3073339462280271
2026-01-05 13:41:08.373,1.76762046839268e+18,1.185679931640625,-0.5371489524841309,-1.0119261741638184,0.2303905487060547
2026-01-05 13:41:08.406,1.7676204684327757e+18,1.225775634765625,-0.5120275020599365,-0.972785472869873,0.2303905487060547
2026-01-05 13:41:08.439,1.7676204684528182e+18,1.245818115234375,-0.5371489524841309,-0.972785472869873,0.2303905487060547
2026-01-05 13:41:08.472,1.7676204684728806e+18,1.265880615234375,-0.7234691381454468,-1.0119261741638184,-0.2358584403991699
2026-01-05 13:41:08.505,1.767620468512967e+18,1.305966796875,-0.3305041790008545,-1.0119261741638184,-0.2358584403991699
2026-01-05 13:41:08.538,1.7676204685530522e+18,1.34605224609375,-0.1009585857391357,-0.4189167022705078,0.3216991424560547
2026-01-05 13:41:08.571,1.767620468593143e+18,1.38614306640625,-0.5594797826740193,3.151963233947754,0.3216991424560547
2026-01-05 13:41:08.604,1.7676204686332337e+18,1.426233642578125,-0.5594797826740193,5.2934980392456055,0.3216991424560547
2026-01-05 13:41:08.637,1.767620468653296e+18,1.4462960647600942,-0.5594797826740193,5.2934980392456055,1.3753983634778306
2026-01-05 13:41:08.670,1.7676204686733586e+18,1.466358642578125,-0.5594797826740193,5.2934980392456055,1.3753983634778306
2026-01-05 13:41:08.703,1.767620468713442e+18,1.506442138671875,-1.0180045366287231,2.535154342651367,1.3753983634778306
2026-01-05 13:41:08.736,1.767620468753558e+18,1.54655810546875,-1.0180045366287231,0.1254243850708007,0.0280258655548095
2026-01-05 13:41:08.769,1.767620468793642e+18,1.58664208984375,-0.09043470563685196,0.1254243850708007,-0.359079360961914
2026-01-05 13:41:08.802,1.76762046883375e+18,1.62675,-0.09043470563685196,0.1254243850708007,-2.7109995328578673
2026-01-05 13:41:08.835,1.7676204688537892e+18,1.646789262297908,-1.4210509061813354,0.5688600540161133,-2.7109995328578673
2026-01-05 13:41:08.868,1.7676204688738284e+18,1.666828369140625,-0.6232333183288574,0.5688600540161133,-2.7109995328578673
2026-01-05 13:41:08.901,1.7676204689139205e+18,1.70692041015625,-0.6232333183288574,0.5688600540161133,-1.7980178594589231
2026-01-05 13:41:08.934,1.7676204689540001e+18,1.747000244140625,-0.7349515557289124,0.5688600540161133,0.4367167949676513
2026-01-05 13:41:08.967,1.7676204689940887e+18,1.787088623046875,-0.7349515557289124,0.5688600540161133,0.4986268281936645
2026-01-05 13:41:09.000,1.7676204690141394e+18,1.8071392822265624,-0.6232333183288574,1.6612744331359863,0.4986268281936645
2026-01-05 13:41:09.033,1.7676204690341898e+18,1.82718994140625,-0.7349515557289124,2.78786563873291,0.4986268281936645
2026-01-05 13:41:09.066,1.767620469074304e+18,1.867303955078125,-0.7349515557289124,2.78786563873291,0.4304503202438354
2026-01-05 13:41:09.099,1.7676204691143716e+18,1.90737158203125,-0.2445852756500244,2.78786563873291,0.3632091283798218
2026-01-05 13:41:09.132,1.7676204691544494e+18,1.947449462890625,0.1445891857147216,-5.609393119812012,0.2959679365158081
2026-01-05 13:41:09.165,1.7676204691945303e+18,1.9875302734375,0.2034845352172851,-5.609393119812012,0.2959679365158081
2026-01-05 13:41:09.198,1.7676204692146166e+18,2.0076166550587975,0.3933547947278623,-5.609393119812012,0.2959679365158081
2026-01-05 13:41:09.231,1.7676204692347028e+18,2.027702880859375,0.4145293235778808,-3.958127975463867,-0.441787987947464
2026-01-05 13:41:09.264,1.767620469274779e+18,2.06777880859375,0.5832235813140869,-1.4657707214355469,-0.441787987947464
2026-01-05 13:41:09.297,1.7676204693148595e+18,2.107859619140625,0.5832235813140869,-1.2505369186401367,1.5020822286605835
2026-01-05 13:41:09.330,1.7676204693549432e+18,2.147943115234375,0.4145293235778808,-1.0609188079833984,1.5020822286605835
2026-01-05 13:41:09.363,1.7676204693950405e+18,2.18804052734375,-3.1146163940429688,0.1185216903686523,0.9217810034751891
2026-01-05 13:41:09.396,1.767620469415078e+18,2.208077880859375,-3.1146163940429688,0.7906105518341063,0.9217810034751891
2026-01-05 13:41:09.429,1.7676204694351153e+18,2.228115234375,-3.1146163940429688,0.963210105895996,0.8095099329948425
2026-01-05 13:41:09.462,1.7676204694751905e+18,2.2681904296875,-2.9838743209838867,1.1192359924316406,0.1786986589431762
2026-01-05 13:41:09.495,1.767620469515288e+18,2.3082880859375,-2.107523202896118,1.4626994132995603,-0.1812970489263534
2026-01-05 13:41:09.528,1.7676204695553856e+18,2.348385498046875,-1.142719268798828,2.071381092071533,-0.1812970489263534
2026-01-05 13:41:09.561,1.7676204695754227e+18,2.3684227294921874,-0.8346705436706542,2.071381092071533,0.1854411512613296
2026-01-05 13:41:09.594,1.7676204695954598e+18,2.3884599609375,-0.5266218185424805,2.071381092071533,-0.1887843608856201
2026-01-05 13:41:09.627,1.7676204696355779e+18,2.428577880859375,0.4122285842895508,1.9476642608642576,-0.1887843608856201
2026-01-05 13:41:09.660,1.767620469675662e+18,2.468662109375,0.6060583591461182,0.8803224563598633,0.06508619338274
2026-01-05 13:41:09.693,1.7676204697157716e+18,2.508771728515625,0.6604663133621216,0.8803224563598633,-0.1887843608856201
2026-01-05 13:41:09.726,1.7676204697558807e+18,2.548880615234375,0.6060583591461182,1.4441173076629639,-0.3249665796756744
2026-01-05 13:41:09.759,1.7676204697759355e+18,2.5689354248046876,0.4122285842895508,1.4441173076629639,-0.46820684894919395
2026-01-05 13:41:09.792,1.7676204697959903e+18,2.588990234375,0.6604663133621216,0.987900733947754,-0.6902706623077393
2026-01-05 13:41:09.825,1.7676204698360952e+18,2.62909521484375,0.6604663133621216,0.987900733947754,-0.6902706623077393
2026-01-05 13:41:09.858,1.7676204698762097e+18,2.669209716796875,0.2804603576660156,0.8950586318969727,-0.6902706623077393
2026-01-05 13:41:09.891,1.7676204699163139e+18,2.70931396484375,0.0122537612915039,0.3538169860839844,0.5190891623497009
2026-01-05 13:41:09.924,1.767620469956422e+18,2.749421875,0.0893950462341308,-3.12099838256836,1.6148179769515991
2026-01-05 13:41:09.957,1.7676204699764577e+18,2.769457763671875,0.0122537612915039,-5.04576587677002,1.6148179769515991
2026-01-05 13:41:09.990,1.767620469996504e+18,2.789504150390625,-0.6901868581771851,-5.04576587677002,1.6148179769515991
2026-01-05 13:41:10.023,1.7676204700365919e+18,2.829591796875,-1.3783445358276367,-5.338130654430618,-3.303292691707611
2026-01-05 13:41:10.056,1.767620470076678e+18,2.869677978515625,-1.8675922486319623,-5.338130654430618,-3.303292691707611
2026-01-05 13:41:10.089,1.7676204701067407e+18,2.899740844726563,-1.8675922486319623,-3.2153827010255185,-3.303292691707611
2026-01-05 13:41:10.122,1.7676204701317914e+18,2.924791345705326,-1.8675922486319623,-0.2326993942260742,-1.3038318822198214
2026-01-05 13:41:10.155,1.767620470156842e+18,2.949842041015625,-1.106081485748291,-0.2326993942260742,-0.7940616011619568
2026-01-05 13:41:10.188,1.7676204701969275e+18,2.989927490234375,-0.9046913385391236,0.4919910430908203,-0.7940616011619568
2026-01-05 13:41:10.221,1.7676204702370324e+18,3.030032470703125,-0.0272269248962402,0.5068216323852539,-0.2967179417610168
2026-01-05 13:41:10.254,1.7676204702771556e+18,3.070155517578125,0.8651911020278931,0.9086732864379884,-0.2967179417610168
2026-01-05 13:41:10.287,1.7676204703172762e+18,3.110276123046875,1.0782735347747805,1.3105249404907229,-0.2890830039978027
2026-01-05 13:41:10.320,1.7676204703373348e+18,3.1303345947265626,1.0782735347747805,1.3105249404907229,0.3152351081371308
2026-01-05 13:41:10.353,1.7676204703573932e+18,3.15039306640625,1.0782735347747805,0.9086732864379884,0.3152351081371308
2026-01-05 13:41:10.386,1.7676204703974948e+18,3.190494873046875,-0.4516259431838989,1.3105249404907229,0.3152351081371308
2026-01-05 13:41:10.419,1.7676204704375903e+18,3.23059033203125,-0.4516259431838989,1.4780769348144531,-0.2123886942863464
2026-01-05 13:41:10.452,1.7676204704776806e+18,3.2706806640625,-0.4516259431838989,1.4780769348144531,-0.2123886942863464
2026-01-05 13:41:10.485,1.7676204705177649e+18,3.310764892578125,-0.4516259431838989,0.8844949147280796,-0.2123886942863464
2026-01-05 13:41:10.518,1.7676204705378135e+18,3.3308135543265536,-0.7106027603149414,1.0322380065917969,-0.2123886942863464
2026-01-05 13:41:10.551,1.7676204705578621e+18,3.350862060546875,-0.7106027603149414,1.0322380065917969,-0.2123886942863464
2026-01-05 13:41:10.584,1.767620470597966e+18,3.390966064453125,-0.7324714660644531,1.0322380065917969,-0.7159982323646545
2026-01-05 13:41:10.617,1.7676204706380662e+18,3.431066162109375,-0.7324714660644531,1.2718815803527832,-0.720506369398523
2026-01-05 13:41:10.650,1.7676204706781952e+18,3.4711953125,-0.7324714660644531,1.4059904055068593,-0.720506369398523
2026-01-05 13:41:10.683,1.7676204706982543e+18,3.4912543502652373,-0.5170085417494366,1.4059904055068593,-0.720506369398523
2026-01-05 13:41:10.716,1.7676204707183132e+18,3.511313232421875,-0.3015472888946533,1.2718815803527832,-0.720506369398523
2026-01-05 13:41:10.749,1.76762047075842e+18,3.551419921875,0.133371353149414,-5.097105979919434,-0.3438474535942077
2026-01-05 13:41:10.782,1.7676204707985085e+18,3.591508544921875,0.133371353149414,-5.097105979919434,-0.3438474535942077
2026-01-05 13:41:10.815,1.76762047083863e+18,3.6316298828125,0.133371353149414,-5.097105979919434,0.011451303958892822
2026-01-05 13:41:10.848,1.7676204708787133e+18,3.67171337890625,-1.0119261741638184,-1.6192741394042969,0.9874100685119628
2026-01-05 13:41:10.881,1.7676204708987743e+18,3.6917742919921874,-1.671729564666748,-1.0218782424926758,0.3019908964633941
2026-01-05 13:41:10.914,1.7676204709188352e+18,3.711835205078125,-2.3315329551696777,-0.6589417457580566,0.3019908964633941
2026-01-05 13:41:10.947,1.7676204709589325e+18,3.751932373046875,-2.830432415008545,-0.4244823455810547,1.4122060537338257
2026-01-05 13:41:10.980,1.7676204709990377e+18,3.79203759765625,-2.830432415008545,3.7394847869873047,1.4122060537338257
2026-01-05 13:41:11.013,1.7676204710391375e+18,3.832137451171875,-2.830432415008545,3.7394847869873047,0.7562084794044495
2026-01-05 13:41:11.046,1.7676204710592184e+18,3.852218505859375,-2.578937768936157,3.7394847869873047,0.7562084794044495
2026-01-05 13:41:11.079,1.7676204710792717e+18,3.872271728515625,-2.4084577560424805,3.6231627464294434,0.3870532512664795
2026-01-05 13:41:11.112,1.7676204711193551e+18,3.912355224609375,-0.8542811870574951,1.7031378746032717,0.163095086812973
2026-01-05 13:41:11.145,1.7676204711594755e+18,3.952475341796875,0.6428959369659424,1.2262983322143557,-0.7323523163795471
2026-01-05 13:41:11.178,1.7676204711995686e+18,3.992568603515625,0.6428959369659424,1.0124893188476562,-0.5680461674928665
2026-01-05 13:41:11.211,1.7676204712396705e+18,4.03267041015625,0.6428959369659424,0.6748423576354982,-0.2830053865909576
2026-01-05 13:41:11.244,1.7676204712597217e+18,4.0527216796875,0.6428959369659424,0.6748423576354982,-0.2830053865909576
2026-01-05 13:41:11.277,1.767620471279773e+18,4.07277294921875,0.595695972442627,0.1233863830566406,-0.2830053865909576
2026-01-05 13:41:11.310,1.7676204713198886e+18,4.112888671875,0.4490950107574463,-0.4311847686767578,-0.083972156047821
2026-01-05 13:41:11.343,1.7676204713599908e+18,4.15299072265625,0.2552940845489502,-3.6253795623779297,-0.083972156047821
2026-01-05 13:41:11.376,1.767620471390056e+18,4.183055786132812,-0.930888295173645,-3.6253795623779297,0.6264156103134155
2026-01-05 13:41:11.409,1.7676204714401702e+18,4.233170166015625,-3.187174081802368,-3.6253795623779297,1.7505237460136411
2026-01-05 13:41:11.442,1.7676204714602107e+18,4.253210693359375,-3.187174081802368,-4.459919452667236,1.7505237460136411
2026-01-05 13:41:11.475,1.7676204714802578e+18,4.2732578125,-3.187174081802368,-0.8368082046508789,1.290307201067891
2026-01-05 13:41:11.508,1.7676204715203433e+18,4.31334326171875,-1.4574790000915527,-0.2657642364501953,1.290307201067891
2026-01-05 13:41:11.541,1.7676204715604324e+18,4.353432373046875,-0.7601926326751709,-0.1917591094970703,0.7667299509048462
2026-01-05 13:41:11.574,1.7676204716005174e+18,4.393517333984375,-0.644219160079956,-0.1917591094970703,0.4873554706573486
2026-01-05 13:41:11.607,1.7676204716205665e+18,4.41356640625,-0.27092981338500977,0.7592856884002686,-0.0423276424407959
2026-01-05 13:41:11.640,1.7676204716406154e+18,4.433615478515625,0.2183330059051513,0.8540401458740234,-0.0423276424407959
2026-01-05 13:41:11.673,1.7676204716807204e+18,4.473720458984375,0.2183330059051513,1.7103304862976074,0.4873554706573486
2026-01-05 13:41:11.706,1.7676204717208292e+18,4.5138291015625,0.2183330059051513,2.3049092292785645,0.4873554706573486
2026-01-05 13:41:11.739,1.7676204717609257e+18,4.55392578125,-0.3731065988540649,2.3049092292785645,-0.0423276424407959
2026-01-05 13:41:11.772,1.7676204718010499e+18,4.5940498046875,-1.207443356513977,1.574554683265914,-1.0125988721847534
2026-01-05 13:41:11.805,1.7676204718210916e+18,4.614091474996836,-1.207443356513977,2.9139442443847656,-1.0125988721847534
2026-01-05 13:41:11.838,1.7676204718411333e+18,4.63413330078125,-1.207443356513977,1.9085197448730469,-1.0125988721847534
2026-01-05 13:41:11.871,1.7676204718812247e+18,4.674224609375,-1.207443356513977,1.574554683265914,-0.5094999670982361
2026-01-05 13:41:11.904,1.7676204719213215e+18,4.714321533203125,-0.5919275283813477,0.042388916015625,-0.0014573335647583
2026-01-05 13:41:11.937,1.767620471961441e+18,4.75444091796875,0.3383433818817138,0.042388916015625,0.2608188986778259
2026-01-05 13:41:11.970,1.767620472001542e+18,4.7945419921875,0.4537227153778076,-3.4274682998657227,0.2608188986778259
2026-01-05 13:41:12.003,1.7676204720216074e+18,4.814607499704395,1.063674998335266,-6.472868810837465,0.2857786531357977
2026-01-05 13:41:12.036,1.767620472041673e+18,4.8346728515625,1.063674998335266,-6.472868810837465,0.2857786531357977
2026-01-05 13:41:12.069,1.7676204720817672e+18,4.87476708984375,1.063674998335266,-6.472868810837465,0.5730124115943909
2026-01-05 13:41:12.102,1.767620472121861e+18,4.914861083984375,0.319610595703125,-3.3413987159729004,2.0343410968780518
2026-01-05 13:41:12.135,1.7676204721619576e+18,4.95495751953125,-1.922429084777832,0.2317352294921875,2.0343410968780518
2026-01-05 13:41:12.168,1.7676204721820209e+18,4.975020751953125,-2.5562063455581665,0.27362751960754395,2.0119929909706116
2026-01-05 13:41:12.201,1.767620472202084e+18,4.995083984375,-3.189983606338501,0.3155198097229004,2.0119929909706116
2026-01-05 13:41:12.234,1.7676204722522179e+18,5.045218017578125,-3.189983606338501,3.518226385116577,1.5459866523742676
2026-01-05 13:41:12.267,1.7676204722823101e+18,5.07531005859375,-3.189983606338501,3.518226385116577,0.5948352217674255
2026-01-05 13:41:12.300,1.7676204723224008e+18,5.11540087890625,-2.578210830688477,3.518226385116577,-0.8687657117843628
2026-01-05 13:41:12.333,1.7676204723625193e+18,5.155519287109375,-1.4400818347930908,1.7885384559631348,-0.8687657117843628
2026-01-05 13:41:12.366,1.7676204723825654e+18,5.175565263300513,-0.9141486749029709,0.6562286803170041,-0.8687657117843628
2026-01-05 13:41:12.399,1.7676204724026112e+18,5.195611083984375,-0.3882195949554443,0.5831813812255859,-0.1744679659605026
2026-01-05 13:41:12.432,1.7676204724427064e+18,5.23570654296875,0.4013667106628418,0.5646095275878906,0.0258397758007049
2026-01-05 13:41:12.465,1.767620472482792e+18,5.2757919921875,0.4013667106628418,0.3386774063110351,0.0258397758007049
2026-01-05 13:41:12.498,1.7676204725228995e+18,5.3158994140625,0.611207127571106,0.3386774063110351,0.0258397758007049
2026-01-05 13:41:12.531,1.7676204725629942e+18,5.355994140625,0.611207127571106,0.3386774063110351,-0.0846317410469055
2026-01-05 13:41:12.564,1.7676204725830487e+18,5.3760487060546875,0.4013667106628418,0.1517319679260254,-0.0846317410469055
2026-01-05 13:41:12.597,1.7676204726031032e+18,5.396103271484375,0.611207127571106,-0.0352134704589843,-0.2286086231470108
2026-01-05 13:41:12.630,1.7676204726432e+18,5.436199951171875,0.611207127571106,-1.228729248046875,-0.1486439704895019
2026-01-05 13:41:12.663,1.7676204726833073e+18,5.476307373046875,-0.0801036357879638,-1.5271012783050542,-0.0846317410469055
2026-01-05 13:41:12.696,1.7676204727233887e+18,5.516388671875,-2.1815624237060547,-1.5271012783050542,1.167037010192871
2026-01-05 13:41:12.729,1.7676204727434276e+18,5.536427734375,-1.450256109237671,-1.228729248046875,1.167037010192871
2026-01-05 13:41:12.762,1.7676204727634668e+18,5.556466796875,-1.450256109237671,-0.3622951507568359,1.167037010192871
2026-01-05 13:41:12.795,1.7676204728035407e+18,5.596540771484375,-1.450256109237671,1.2880630493164062,1.167037010192871
2026-01-05 13:41:12.828,1.7676204728436518e+18,5.63665185546875,-0.9544734954833984,1.7452473640441897,0.4740097224712372
2026-01-05 13:41:12.861,1.767620472883737e+18,5.676737060546875,0.3230786323547363,1.7452473640441897,-0.11923950910568229
2026-01-05 13:41:12.894,1.7676204729238239e+18,5.716823974609375,0.397043228149414,1.7452473640441897,-0.11923950910568229
2026-01-05 13:41:12.927,1.7676204729438638e+18,5.736863891601562,0.8325107097625732,1.7452473640441897,-0.11923950910568229
2026-01-05 13:41:12.960,1.7676204729639037e+18,5.75690380859375,0.8325107097625732,2.206379890441895,-0.074625015258789
2026-01-05 13:41:12.993,1.7676204730040172e+18,5.79701708984375,0.397043228149414,2.206379890441895,0.2388411164283752
2026-01-05 13:41:13.026,1.7676204730440975e+18,5.83709765625,-0.6639226675033569,2.6675124168396,1.043670415878296
2026-01-05 13:41:13.059,1.7676204730842107e+18,5.877210693359375,-0.6678686141967773,2.8412476377062563,1.043670415878296
2026-01-05 13:41:13.092,1.767620473124287e+18,5.917286865234375,-0.6678686141967773,2.8412476377062563,1.043670415878296
2026-01-05 13:41:13.125,1.7676204731493338e+18,5.9423335820481284,-0.6678686141967773,1.3148939609527588,0.10349642826242944
2026-01-05 13:41:13.158,1.7676204731743805e+18,5.967380493164063,-0.2412846088409424,1.3148939609527588,0.10349642826242944
2026-01-05 13:41:13.191,1.7676204732044431e+18,5.997443115234375,0.933073878288269,-2.964424133300781,0.10349642826242944
2026-01-05 13:41:13.224,1.7676204732345e+18,6.027500122070313,0.933073878288269,-2.964424133300781,0.43268996477127075
2026-01-05 13:41:13.257,1.7676204732845896e+18,6.077589599609375,0.933073878288269,-2.964424133300781,1.067982792854309
2026-01-05 13:41:13.290,1.7676204733046234e+18,6.097623335379176,0.5129254153714633,-2.4289823800381747,1.067982792854309
2026-01-05 13:41:13.323,1.7676204733246572e+18,6.1176572265625,-0.9697599411010742,-1.844269929823442,1.2989636678131529
2026-01-05 13:41:13.356,1.7676204733647247e+18,6.157724853515625,-1.6748814582824707,-1.2595620155334473,1.2989636678131529
2026-01-05 13:41:13.389,1.7676204734047944e+18,6.19779443359375,-2.6357555389404297,-0.650146484375,1.855801224708557
2026-01-05 13:41:13.422,1.767620473444861e+18,6.23786083984375,-3.2693793773651123,-0.191382884979248,1.855801224708557
2026-01-05 13:41:13.455,1.7676204734749297e+18,6.2679296875,-3.934479713439941,2.3924279212951656,1.855801224708557
2026-01-05 13:41:13.488,1.7676204734999754e+18,6.2929754638671875,-3.934479713439941,4.092996835708618,1.672966480255127
2026-01-05 13:41:13.521,1.7676204735250212e+18,6.318021240234375,-3.934479713439941,4.092996835708618,1.1688368320465088
2026-01-05 13:41:13.554,1.7676204735650898e+18,6.35808984375,-3.349996566772461,4.092996835708618,1.1688368320465088
2026-01-05 13:41:13.587,1.7676204736051643e+18,6.398164306640625,-0.9999420642852784,1.230060577392578,-0.979734182357788
2026-01-05 13:41:13.620,1.7676204736452708e+18,6.438270751953125,2.322408676147461,1.230060577392578,-1.0159114599227903
2026-01-05 13:41:13.653,1.7676204736853548e+18,6.478354736328125,2.322408676147461,0.9702062606811525,-0.979734182357788
2026-01-05 13:41:13.686,1.7676204737053972e+18,6.498397216796875,2.322408676147461,0.9702062606811525,-0.2647794485092163
2026-01-05 13:41:13.719,1.7676204737254518e+18,6.51845166015625,1.8995332717895508,0.9702062606811525,-0.2647794485092163
2026-01-05 13:41:13.752,1.7676204737655462e+18,6.558546142578125,1.4507527351379397,-2.3722400665283203,0.0831062346696853
2026-01-05 13:41:13.785,1.7676204738056292e+18,6.598629150390625,1.1709110736846924,-2.976826970364071,0.9414259791374208
2026-01-05 13:41:13.818,1.7676204738457183e+18,6.63871826171875,-0.8071075040097171,-2.976826970364071,1.154742189140767
2026-01-05 13:41:13.851,1.7676204738707727e+18,6.663772680188021,-2.9970993995666504,-2.976826970364071,1.154742189140767
2026-01-05 13:41:13.884,1.767620473895827e+18,6.688826904296874,-2.2805347442626958,-2.976826970364071,0.9414259791374208
2026-01-05 13:41:13.917,1.767620473925897e+18,6.71889697265625,-2.2805347442626958,-1.9484262466430664,-0.0621903538703918
2026-01-05 13:41:13.950,1.767620473966084e+18,6.759083984375,-2.2805347442626958,-1.933818817138672,-0.6841657757759094
2026-01-05 13:41:13.983,1.7676204740061775e+18,6.799177490234375,-0.7569606304168701,-0.2459897994995117,-0.6841657757759094
2026-01-05 13:41:14.016,1.7676204740462781e+18,6.839278076171875,-0.1868336200714111,1.876739501953125,-0.15234576165676117
2026-01-05 13:41:14.049,1.7676204740663273e+18,6.859327270507812,0.21898221969604492,1.876739501953125,-0.0621903538703918
2026-01-05 13:41:14.082,1.7676204740863764e+18,6.87937646484375,0.21898221969604492,2.488111734390259,0.05284184217453
2026-01-05 13:41:14.115,1.7676204741265132e+18,6.91951318359375,0.21898221969604492,2.488111734390259,0.05284184217453
2026-01-05 13:41:14.148,1.7676204741666035e+18,6.959603515625,-0.131718635559082,2.1913323402404785,0.05284184217453
2026-01-05 13:41:14.181,1.767620474206727e+18,6.999726806640625,-1.313541054725647,2.1913323402404785,-0.2731151282787323
2026-01-05 13:41:14.214,1.7676204742468206e+18,7.039820556640625,-2.054809093475342,3.832627534866333,-0.2731151282787323
2026-01-05 13:41:14.247,1.7676204742668805e+18,7.059880615234375,-2.054809093475342,2.1913323402404785,-0.7359735369682312
2026-01-05 13:41:14.280,1.7676204742869407e+18,7.079940673828125,-2.054809093475342,1.3471341133117676,-0.2731151282787323
2026-01-05 13:41:14.313,1.7676204743270267e+18,7.120026611328125,-0.4844801425933838,-1.0390844345092771,0.1897432804107666
2026-01-05 13:41:14.346,1.767620474367114e+18,7.160114013671875,1.463860034942627,-3.7695999145507812,0.767994225025177
2026-01-05 13:41:14.379,1.7676204744072084e+18,7.20020849609375,1.463860034942627,-3.7695999145507812,1.463066816329956
2026-01-05 13:41:14.412,1.7676204744272573e+18,7.22025732421875,1.463860034942627,-3.7695999145507812,1.463066816329956
2026-01-05 13:41:14.445,1.7676204744473062e+18,7.24030615234375,1.2447185516357422,-3.002806776723931,1.4742803573608398
2026-01-05 13:41:14.478,1.767620474487398e+18,7.28039794921875,-1.2740082740783691,-2.2360076904296875,1.4854938983917236
2026-01-05 13:41:14.511,1.7676204745274813e+18,7.3204814453125,-2.3442742824554443,-2.171171188354492,1.9177091121673584
2026-01-05 13:41:14.544,1.767620474567578e+18,7.360578125,-2.820851325988769,-0.5543770790100098,1.9177091121673584
2026-01-05 13:41:14.577,1.7676204746076923e+18,7.4006923828125,-4.2263712882995605,3.1411046981811523,1.9177091121673584
2026-01-05 13:41:14.610,1.767620474632749e+18,7.425749048318134,-4.2263712882995605,4.218695275507855,1.619119509938356
2026-01-05 13:41:14.643,1.7676204746578058e+18,7.450805908203125,-4.2263712882995605,4.218695275507855,0.9391636252403259
2026-01-05 13:41:14.676,1.767620474687889e+18,7.480888916015625,-3.8815417289733887,4.218695275507855,0.3883209824562073
2026-01-05 13:41:14.709,1.7676204747279729e+18,7.520972900390625,-1.5640546083450315,1.3027305603027344,0.317423939704895
2026-01-05 13:41:14.742,1.7676204747680847e+18,7.561084716796875,1.6399986743927002,1.3027305603027344,-0.2330964803695678
2026-01-05 13:41:14.775,1.7676204747881203e+18,7.581120361328125,1.6399986743927002,0.9037408828735352,-0.2330964803695678
2026-01-05 13:41:14.808,1.7676204748081736e+18,7.601173583984375,1.6399986743927002,0.9037408828735352,0.3883209824562073
2026-01-05 13:41:14.841,1.7676204748482714e+18,7.641271240234375,0.9534618854522704,0.9037408828735352,0.8289810419082642
2026-01-05 13:41:14.874,1.7676204748883546e+18,7.6813544921875,0.9534618854522704,-3.073622703552246,0.8289810419082642
2026-01-05 13:41:14.907,1.7676204749184492e+18,7.71144921875,-0.2468180656433105,-3.9358413974520055,0.8289810419082642
2026-01-05 13:41:14.940,1.7676204749685568e+18,7.761556884765625,-0.4953167186487857,-3.9358413974520055,0.6184839010238647
2026-01-05 13:41:14.973,1.7676204749886198e+18,7.78161979522695,-2.232524275779724,-4.973632492625539,-1.3330509660186773
2026-01-05 13:41:15.006,1.7676204750086828e+18,7.801682861328125,-0.4953167186487857,-3.9358413974520055,-1.3330509660186773
2026-01-05 13:41:15.039,1.7676204750588124e+18,7.851812499999999,-1.392520308494568,-1.416971206665039,-0.8314181566238403
2026-01-05 13:41:15.072,1.767620475088897e+18,7.88189697265625,-1.392520308494568,0.38671875,0.0787155628204345
2026-01-05 13:41:15.105,1.767620475128983e+18,7.921983154296875,-0.2630863189697265,0.38671875,0.0787155628204345
2026-01-05 13:41:15.138,1.7676204751690826e+18,7.96208251953125,0.0607886314392089,1.925004005432129,0.8028419613838196
2026-01-05 13:41:15.171,1.7676204751891264e+18,7.98212646484375,0.0607886314392089,2.3555150032043457,0.9628750681877136
2026-01-05 13:41:15.204,1.7676204752091681e+18,8.002168212890625,0.0607886314392089,2.9550909996032715,0.9628750681877136
2026-01-05 13:41:15.237,1.7676204752492797e+18,8.04227978515625,-0.2630863189697265,2.9550909996032715,0.8841866254806519
2026-01-05 13:41:15.270,1.7676204752893798e+18,8.0823798828125,-0.9917865991592407,2.8855905532836914,0.8028419613838196
2026-01-05 13:41:15.303,1.7676204753294643e+18,8.12246435546875,-0.9917865991592407,2.3555150032043457,-1.2742451429367063
2026-01-05 13:41:15.336,1.7676204753495107e+18,8.142510498046875,-1.2234768867492676,2.30420446395874,-1.2742451429367063
2026-01-05 13:41:15.369,1.7676204753695567e+18,8.162556640625,-0.9917865991592407,2.2350826263427734,-1.2742451429367063
2026-01-05 13:41:15.402,1.7676204754096591e+18,8.2026591796875,-0.7260210514068604,1.5845746994018557,-0.4823884963989258
2026-01-05 13:41:15.435,1.7676204754497382e+18,8.24273828125,-0.4447395801544189,-1.569967269897461,-0.38932776451110834
2026-01-05 13:41:15.468,1.7676204754797934e+18,8.272793334960937,0.6942758222379473,-5.172452926635742,-0.0287324786186218
2026-01-05 13:41:15.501,1.767620475529896e+18,8.32289599609375,0.6942758222379473,-5.172452926635742,-0.0287324786186218
2026-01-05 13:41:15.534,1.7676204755549448e+18,8.34794486034226,0.6942758222379473,-5.172452926635742,-0.3102269172668457
2026-01-05 13:41:15.567,1.7676204755799936e+18,8.372993530273437,-0.052039146423339844,-4.13585901260376,0.7909589502792178
2026-01-05 13:41:15.600,1.767620475620077e+18,8.4130771484375,-2.3496668338775635,-0.7880673408508301,0.7909589502792178
2026-01-05 13:41:15.633,1.7676204756501527e+18,8.443152587890625,-2.938138723373413,-0.7591652870178223,1.5672420263290403
2026-01-05 13:41:15.666,1.7676204756902525e+18,8.48325244140625,-3.295004606246948,-0.12085580825805667,2.005823493003845
2026-01-05 13:41:15.699,1.7676204757303557e+18,8.523355712890625,-4.391403675079346,2.470592975616455,2.005823493003845
2026-01-05 13:41:15.732,1.767620475750402e+18,8.543402099609375,-4.391403675079346,2.9272265434265137,2.005823493003845
2026-01-05 13:41:15.765,1.7676204757704484e+18,8.563448486328125,-4.391403675079346,2.9272265434265137,1.105508804321289
2026-01-05 13:41:15.798,1.7676204758205878e+18,8.613587768554687,-2.918151617050171,2.9272265434265137,-0.1309458017349243
2026-01-05 13:41:15.831,1.767620475850655e+18,8.643655029296875,-1.4487946033477783,2.523491382598877,-0.1309458017349243
2026-01-05 13:41:15.864,1.7676204758907853e+18,8.683785400390626,0.6426763534545898,0.7993278503417969,-0.1309458017349243
2026-01-05 13:41:15.897,1.7676204759108285e+18,8.703828491210938,1.5775494575500488,0.0189094543457031,-0.1309458017349243
2026-01-05 13:41:15.930,1.7676204759308716e+18,8.72387158203125,1.5775494575500488,0.0120124816894531,-9.50843095779419e-05
2026-01-05 13:41:15.963,1.7676204759709821e+18,8.763982177734375,1.5775494575500488,0.0120124816894531,0.1307556331157684
2026-01-05 13:41:15.996,1.7676204760110815e+18,8.80408154296875,1.372133731842041,0.0120124816894531,0.3571773767471313
2026-01-05 13:41:16.029,1.7676204760511808e+18,8.844180908203125,0.3206174373626709,-1.3422603607177734,0.6517514586448669
2026-01-05 13:41:16.062,1.767620476091274e+18,8.88427392578125,-0.4642136096954345,-3.0846376419067383,0.6517514586448669
2026-01-05 13:41:16.095,1.7676204761113142e+18,8.904314208984376,-0.8478546142578125,-3.408153533935547,0.3571773767471313
2026-01-05 13:41:16.128,1.767620476131365e+18,8.924365234375,-1.2620277404785156,-3.408153533935547,0.6793093681335449
2026-01-05 13:41:16.161,1.7676204761714499e+18,8.964449951171876,-1.2620277404785156,-3.408153533935547,-0.0451886653900146
2026-01-05 13:41:16.194,1.7676204762115633e+18,9.004563232421875,-1.2620277404785156,-3.408153533935547,-0.0451886653900146
2026-01-05 13:41:16.227,1.7676204762416282e+18,9.034628295898436,-1.2620277404785156,-1.2427005767822266,-1.1454592943191528
2026-01-05 13:41:16.260,1.7676204762917343e+18,9.084734375,-1.16454815864563,-0.8249330520629883,-0.9897165298461914
2026-01-05 13:41:16.293,1.767620476311771e+18,9.10477099609375,-1.1356019973754885,-0.8249330520629883,-0.9897165298461914
2026-01-05 13:41:16.326,1.7676204763318592e+18,9.124859130859376,-0.6398324966430664,0.6795177459716797,-0.0999346375465393
2026-01-05 13:41:16.359,1.7676204763719647e+18,9.164964599609377,0.4543447494506836,1.496375322341919,-0.0999346375465393
2026-01-05 13:41:16.392,1.767620476412069e+18,9.205069091796876,0.4543447494506836,1.6723322868347168,0.07763087749481204
2026-01-05 13:41:16.425,1.7676204764421614e+18,9.235161376953124,0.4543447494506836,1.9499640464782717,0.4411193040519662
2026-01-05 13:41:16.458,1.7676204764672302e+18,9.26023024944266,0.014522203817870283,1.9499640464782717,0.07763087749481204
2026-01-05 13:41:16.491,1.7676204764922993e+18,9.28529931640625,-1.616679310798645,1.88940954208374,0.4411193040519662
2026-01-05 13:41:16.524,1.767620476532421e+18,9.325421142578126,-1.616679310798645,1.88940954208374,0.4411193040519662
2026-01-05 13:41:16.557,1.7676204765725256e+18,9.365525634765625,-1.616679310798645,1.4744439125061035,0.804610550403595
2026-01-05 13:41:16.590,1.7676204766126428e+18,9.405642822265625,-1.187726974487305,1.4224653244018557,0.332533597946167
2026-01-05 13:41:16.623,1.767620476652736e+18,9.445736083984375,-0.3649044036865234,1.3656344413757324,0.332533597946167
2026-01-05 13:41:16.656,1.767620476672786e+18,9.4657861328125,0.06421875953674294,-0.5281381607055662,0.28130513429641724
2026-01-05 13:41:16.689,1.767620476692836e+18,9.485836181640623,0.06421875953674294,-2.4787416458129883,0.28130513429641724
2026-01-05 13:41:16.722,1.7676204767329262e+18,9.52592626953125,0.06421875953674294,-2.4787416458129883,0.28130513429641724
2026-01-05 13:41:16.755,1.7676204767730394e+18,9.566039306640626,-0.662200927734375,-2.4787416458129883,1.4886934757232666
2026-01-05 13:41:16.788,1.7676204768131215e+18,9.60612158203125,-2.512060165405273,-2.0148468017578125,1.9542027711868288
2026-01-05 13:41:16.821,1.7676204768532529e+18,9.6462529296875,-2.8409528732299805,-1.6212951177161952,2.218103647232056
2026-01-05 13:41:16.854,1.7676204768733064e+18,9.666306474267369,-3.082022851124724,-1.2277464866638184,2.3180704521326376
2026-01-05 13:41:16.887,1.7676204768933599e+18,9.68635986328125,-3.1105544567108154,-1.2277464866638184,2.3180704521326376
2026-01-05 13:41:16.920,1.7676204769334467e+18,9.72644677734375,-3.1105544567108154,1.4759459495544434,2.3180704521326376
2026-01-05 13:41:16.953,1.7676204769735334e+18,9.766533447265624,-3.1105544567108154,1.4759459495544434,0.7583556771278381
2026-01-05 13:41:16.986,1.7676204770136476e+18,9.806647705078126,-2.096307277679444,1.4759459495544434,0.0476592779159545
2026-01-05 13:41:17.019,1.7676204770336927e+18,9.826692704702973,-1.9122767462870254,0.7552061772884993,-0.0059152245521545
2026-01-05 13:41:17.052,1.7676204770537375e+18,9.846737548828123,-1.7282476425170898,0.7552061772884993,-0.4738447405650327
2026-01-05 13:41:17.085,1.7676204770938685e+18,9.88686865234375,1.4136621952056885,0.5834388732910156,-0.3202337622642517
2026-01-05 13:41:17.118,1.7676204771339681e+18,9.926968017578124,1.4136621952056885,0.5834388732910156,-0.0059152245521545
2026-01-05 13:41:17.151,1.767620477174084e+18,9.967083984375,1.4458057880401611,0.6492733955383301,-0.0059152245521545
2026-01-05 13:41:17.184,1.7676204772141908e+18,10.00719091796875,1.7102458477020264,0.6492733955383301,1.1384118795394895
2026-01-05 13:41:17.217,1.7676204772342502e+18,10.027250244140625,1.4136621952056885,0.5834388732910156,1.1384118795394895
2026-01-05 13:41:17.250,1.7676204772543096e+18,10.0473095703125,1.2353837490081787,0.3080663681030273,1.1384118795394895
2026-01-05 13:41:17.283,1.7676204773044434e+18,10.097443603515625,-0.5742032527923584,-3.8553543090820312,1.1384118795394895
2026-01-05 13:41:17.316,1.7676204773345303e+18,10.1275302734375,-1.6775940656661987,-3.8553543090820312,1.1384118795394895
2026-01-05 13:41:17.349,1.767620477374623e+18,10.167623046875,-2.0890045166015625,-3.8553543090820312,1.0296306610107422
2026-01-05 13:41:17.382,1.767620477414718e+18,10.207718017578124,-2.0890045166015625,-3.004324197769165,1.0296306610107422
2026-01-05 13:41:17.415,1.7676204774347684e+18,10.2277685546875,-2.0890045166015625,-2.0879045724868774,0.9339604377746582
2026-01-05 13:41:17.448,1.767620477454819e+18,10.247819091796876,-1.163329839706421,-1.1714849472045898,0.9339604377746582
2026-01-05 13:41:17.481,1.7676204774949197e+18,10.287919677734376,-0.5577199459075928,-1.1714849472045898,0.7240943908691406
2026-01-05 13:41:17.514,1.7676204775350118e+18,10.32801171875,-0.439120888710022,0.2663297653198242,0.7240943908691406
2026-01-05 13:41:17.547,1.7676204775751196e+18,10.36811962890625,-0.1120085716247558,0.284332275390625,1.018664002418518
2026-01-05 13:41:17.580,1.767620477595174e+18,10.388173706054687,0.05212855339050293,0.8206381797790527,1.1975421905517578
2026-01-05 13:41:17.613,1.767620477615228e+18,10.408227783203126,0.365036129951477,1.3569440841674805,1.018664002418518
2026-01-05 13:41:17.646,1.7676204776553413e+18,10.44834130859375,0.5408155918121338,2.0141725540161133,1.018664002418518
2026-01-05 13:41:17.679,1.7676204776954499e+18,10.488449951171877,0.5408155918121338,2.032281875610352,0.4319736957550049
2026-01-05 13:41:17.712,1.7676204777355535e+18,10.528553466796875,0.365036129951477,2.2198280731932822,0.4319736957550049
2026-01-05 13:41:17.745,1.7676204777756567e+18,10.56865673828125,-0.2736415863037109,2.032281875610352,0.4319736957550049
2026-01-05 13:41:17.778,1.7676204777957245e+18,10.588724531536137,-0.2736415863037109,2.032281875610352,0.2957978248596191
2026-01-05 13:41:17.811,1.7676204778157924e+18,10.60879248046875,-0.6202420923106391,2.2198280731932822,0.49567419248627254
2026-01-05 13:41:17.844,1.767620477855888e+18,10.648887939453124,-0.2736415863037109,1.915510177612305,0.49567419248627254
2026-01-05 13:41:17.877,1.7676204778959864e+18,10.688986328125,0.024874210357666,1.803894519805908,-0.2771388292312622
2026-01-05 13:41:17.910,1.7676204779260506e+18,10.719050537109375,0.35677099227905273,-1.3347511291503906,-0.4232375621795654
2026-01-05 13:41:17.943,1.767620477951108e+18,10.744108154296875,0.9973006248474122,-4.477438926696777,-0.4232375621795654
2026-01-05 13:41:17.976,1.767620477976166e+18,10.769165771484374,1.6378302574157717,-5.186440467834473,-0.4232375621795654
2026-01-05 13:41:18.009,1.767620478016252e+18,10.809251953125,1.6378302574157717,-5.186440467834473,-0.1400417405904376
2026-01-05 13:41:18.042,1.7676204780563743e+18,10.849374267578124,1.6378302574157717,-5.186440467834473,0.001556170204126267
2026-01-05 13:41:18.075,1.7676204780964644e+18,10.88946435546875,-0.1882972717285156,-2.673478126525879,0.14315408099869015
2026-01-05 13:41:18.108,1.767620478136547e+18,10.929547119140626,-1.835191011428833,-0.6735076904296875,0.2847530902519045
2026-01-05 13:41:18.141,1.7676204781565893e+18,10.949589277729318,-2.831611940712997,0.8013775361341973,0.9927448411420248
2026-01-05 13:41:18.174,1.7676204781766316e+18,10.969631591796874,-3.828040599822998,2.2762742042541504,1.0784383416175842
2026-01-05 13:41:18.207,1.767620478226729e+18,11.019728759765625,-3.828040599822998,3.3968448638916016,0.6714909076690674
2026-01-05 13:41:18.240,1.7676204782567954e+18,11.04979541015625,-3.828040599822998,3.3968448638916016,0.6346150040626526
2026-01-05 13:41:18.273,1.767620478296875e+18,11.089875,-3.108696460723877,3.3968448638916016,0.5977391004562378
2026-01-05 13:41:18.306,1.7676204783369526e+18,11.12995263671875,-1.6381111145019531,2.1460671424865723,-2.227091789245605
2026-01-05 13:41:18.339,1.767620478357009e+18,11.15000886685591,-0.2257343584148419,1.4722442716989055,-2.227091789245605
2026-01-05 13:41:18.372,1.767620478377065e+18,11.17006494140625,1.186631441116333,0.8459739685058594,-2.227091789245605
2026-01-05 13:41:18.405,1.7676204784171707e+18,11.210170654296874,2.6402788162231445,0.798426628112793,-1.0876131057739258
2026-01-05 13:41:18.438,1.7676204784572626e+18,11.2502626953125,3.8640756607055664,0.6911630630493164,-0.7175923585891724
2026-01-05 13:41:18.471,1.7676204784973775e+18,11.29037744140625,3.908064365386963,-0.281991958618164,-0.2475221753120422
2026-01-05 13:41:18.504,1.7676204785174308e+18,11.310430908203124,3.908064365386963,-0.42926549911499023,0.6064841747283936
2026-01-05 13:41:18.537,1.7676204785374843e+18,11.330484375,3.908064365386963,-0.5765390396118164,1.117741048336029
2026-01-05 13:41:18.570,1.7676204785775583e+18,11.370558349609375,3.413784980773926,-1.6611204147338867,2.13574743270874
2026-01-05 13:41:18.603,1.7676204786176732e+18,11.410673095703125,1.614281177520752,-1.6611204147338867,2.3352041244506836
2026-01-05 13:41:18.636,1.7676204786477312e+18,11.440731201171875,-0.41094315052032493,-1.6611204147338867,2.13574743270874
2026-01-05 13:41:18.669,1.7676204786979197e+18,11.490919677734375,-2.121165037155152,-4.3460187911987305,2.13574743270874
2026-01-05 13:41:18.702,1.7676204787179656e+18,11.510965653925512,-2.121165037155152,-1.964130401611328,1.7494956198612668
2026-01-05 13:41:18.735,1.7676204787380114e+18,11.531011474609375,-2.121165037155152,-1.6599917148188323,1.7494956198612668
2026-01-05 13:41:18.768,1.767620478778129e+18,11.57112890625,-0.8173463344573975,-1.6599917148188323,0.9643365144729614
2026-01-05 13:41:18.801,1.7676204788182106e+18,11.61121044921875,-0.2253173589706421,0.3552427291870117,0.5087223649024963
2026-01-05 13:41:18.834,1.7676204788583355e+18,11.65133544921875,1.3424078226089478,0.8106327056884766,0.30260762572288513
2026-01-05 13:41:18.867,1.767620478898432e+18,11.691431884765626,1.981964111328125,1.6120939254760742,0.30260762572288513
2026-01-05 13:41:18.900,1.767620478918485e+18,11.711484985351563,1.981964111328125,1.8150653839111328,0.0964928865432739
2026-01-05 13:41:18.933,1.767620478938538e+18,11.7315380859375,2.6056506633758545,2.0180368423461914,0.0964928865432739
2026-01-05 13:41:18.966,1.7676204789786401e+18,11.77164013671875,2.6056506633758545,2.2290759086608887,-0.0868805646896362
2026-01-05 13:41:18.999,1.7676204790187487e+18,11.811748779296876,1.3181471824645996,2.2290759086608887,-0.7801555395126343
2026-01-05 13:41:19.032,1.7676204790588434e+18,11.851843505859376,1.3181471824645996,2.2290759086608887,-0.9676212072372437
2026-01-05 13:41:19.065,1.7676204790788948e+18,11.871894897460937,1.475989580154419,2.121553421020508,-0.7801555395126343
2026-01-05 13:41:19.098,1.7676204790989463e+18,11.8919462890625,1.475989580154419,2.121553421020508,-0.7801555395126343
2026-01-05 13:41:19.131,1.767620479149071e+18,11.942071044921875,1.866698145866394,1.9340951442718504,0.3700796961784363
2026-01-05 13:41:19.164,1.7676204791791483e+18,11.972148193359375,2.4294577836990356,1.7010993957519531,0.3700796961784363
2026-01-05 13:41:19.197,1.767620479219236e+18,12.012236083984376,2.4294577836990356,-1.3798437118530271,0.4192554354667663
2026-01-05 13:41:19.230,1.767620479249298e+18,12.0422978515625,2.071019470691681,-4.735663414001465,0.4192554354667663
2026-01-05 13:41:19.263,1.7676204792743537e+18,12.067353637695312,2.071019470691681,-4.735663414001465,0.4192554354667663
2026-01-05 13:41:19.296,1.7676204792994094e+18,12.092409423828125,0.6881039142608643,-4.735663414001465,1.5159756988286972
2026-01-05 13:41:19.329,1.7676204793394975e+18,12.13249755859375,0.5110936164855957,-1.6596250534057615,1.7811644077301023
2026-01-05 13:41:19.362,1.767620479379594e+18,12.172593994140623,0.2432730197906494,-0.7283840179443359,1.9369785491664189
2026-01-05 13:41:19.395,1.767620479419705e+18,12.212705078125,-0.0570893287658691,0.0438919067382812,1.896623791066602
2026-01-05 13:41:19.428,1.7676204794598057e+18,12.2528056640625,-0.9740958213806152,2.4856925010681152,1.896623791066602
2026-01-05 13:41:19.461,1.7676204794798523e+18,12.272852339235236,-0.9740958213806152,3.2079392075249644,1.896623791066602
2026-01-05 13:41:19.494,1.7676204794998991e+18,12.292899169921874,-0.9740958213806152,3.249448776245117,0.2137400507926941
2026-01-05 13:41:19.527,1.7676204795399903e+18,12.332990234375,-0.697239875793457,3.249448776245117,-0.0806067585945129
2026-01-05 13:41:19.560,1.7676204795801155e+18,12.373115478515626,0.1451671123504638,3.249448776245117,-0.2874932885169983
2026-01-05 13:41:19.593,1.7676204796101842e+18,12.403184326171875,1.068744421005249,3.0569984912872314,-0.4520445466041565
2026-01-05 13:41:19.626,1.7676204796352507e+18,12.42825063519479,2.442276514581782,1.9250223436228822,-0.4520445466041565
2026-01-05 13:41:19.659,1.7676204796603172e+18,12.453317138671874,2.8797781467437744,1.9250223436228822,-0.4520445466041565
2026-01-05 13:41:19.692,1.7676204797004017e+18,12.493401611328125,2.8797781467437744,1.9250223436228822,0.8366641402244568
2026-01-05 13:41:19.725,1.7676204797405166e+18,12.5335166015625,3.347798705101013,0.7930374145507812,1.1475379467010498
2026-01-05 13:41:19.758,1.7676204797805916e+18,12.573591552734374,2.8797781467437744,-0.3022012710571289,1.1475379467010498
2026-01-05 13:41:19.791,1.7676204798206781e+18,12.61367822265625,2.652905941009521,-5.70848560333252,0.9589748382568359
2026-01-05 13:41:19.824,1.7676204798407158e+18,12.633715698242186,0.7108641862869263,-5.8114523243761225,0.9589748382568359
2026-01-05 13:41:19.857,1.7676204798607532e+18,12.653753173828123,0.7108641862869263,-5.8629356848979235,0.625929560643514
2026-01-05 13:41:19.890,1.7676204799008422e+18,12.69384228515625,0.03358125686645502,-5.9659024059415255,0.625929560643514
2026-01-05 13:41:19.923,1.767620479940934e+18,12.733933837890625,0.03358125686645502,-5.9659024059415255,0.625929560643514
2026-01-05 13:41:19.956,1.7676204799710182e+18,12.764018188476562,1.675575434622679,-2.267386387223363,0.625929560643514
2026-01-05 13:41:19.989,1.767620480021124e+18,12.8141240234375,1.675575434622679,1.1016046527465813,0.625929560643514
2026-01-05 13:41:20.022,1.7676204800411692e+18,12.83416902306235,1.675575434622679,0.9819049835205078,0.5340673412869605
2026-01-05 13:41:20.055,1.767620480061214e+18,12.8542138671875,1.814016580581665,1.4826129920166002,-0.8313748836517334
2026-01-05 13:41:20.088,1.7676204801013192e+18,12.894319091796875,1.675575434622679,1.4826129920166002,-0.8313748836517334
2026-01-05 13:41:20.121,1.7676204801414157e+18,12.934415771484376,1.6173925399780271,2.3930916786193848,-0.8313748836517334
2026-01-05 13:41:20.154,1.7676204801815027e+18,12.974502685546875,1.6173925399780271,2.7288926751739213,-0.4428084194660187
2026-01-05 13:41:20.187,1.7676204802016003e+18,12.994600297680483,0.5273125209313518,2.7288926751739213,-0.4231790171498643
2026-01-05 13:41:20.220,1.7676204802216978e+18,13.01469775390625,0.382004976272583,2.3930916786193848,-0.4231790171498643
2026-01-05 13:41:20.253,1.76762048026179e+18,13.0547900390625,0.382004976272583,2.300605297088623,-0.4428084194660187
2026-01-05 13:41:20.286,1.767620480301884e+18,13.0948837890625,0.382004976272583,0.4536314010620117,-1.1771703958511353
2026-01-05 13:41:20.319,1.7676204803419779e+18,13.134977783203125,0.5026345252990723,0.1664752960205078,-1.2998192980885506
2026-01-05 13:41:20.352,1.76762048038208e+18,13.175080078125,0.9666069746017456,-0.055276870727539,-1.2998192980885506
2026-01-05 13:41:20.385,1.7676204804071537e+18,13.20015362548828,1.4433038830757141,-0.13027596473693848,-1.2998192980885506
2026-01-05 13:41:20.418,1.7676204804322273e+18,13.225227172851561,1.4433038830757141,-0.4270272254943848,-1.2998192980885506
2026-01-05 13:41:20.451,1.7676204804623163e+18,13.25531640625,1.4433038830757141,-3.408827781677246,-1.2998192980885506
2026-01-05 13:41:20.484,1.767620480502408e+18,13.295407958984375,-0.1066060066223144,-3.582730293273926,-1.8716945954603519
2026-01-05 13:41:20.517,1.767620480542535e+18,13.335534912109376,-0.2791354656219482,-4.29682731628418,-1.8716945954603519
2026-01-05 13:41:20.550,1.7676204805826227e+18,13.375622802734377,-2.02986741065979,-4.29682731628418,-1.8716945954603519
2026-01-05 13:41:20.583,1.767620480602666e+18,13.395666137695313,-3.251725673675537,-4.29682731628418,-1.8254423141479488
2026-01-05 13:41:20.616,1.7676204806227095e+18,13.41570947265625,-3.251725673675537,-3.204975128173828,-1.8220768570899968
2026-01-05 13:41:20.649,1.767620480662792e+18,13.4557919921875,-3.9531288146972656,-1.0907135009765625,-0.7778642177581787
2026-01-05 13:41:20.682,1.7676204807028887e+18,13.495888671875,-4.756778717041016,1.007618427276611,1.7440990209579468
2026-01-05 13:41:20.715,1.7676204807429688e+18,13.53596875,-4.756778717041016,1.6021478176116943,1.7445306777954102
2026-01-05 13:41:20.748,1.7676204807680161e+18,13.561016113281251,-4.756778717041016,1.6021478176116943,1.7445306777954102
2026-01-05 13:41:20.781,1.7676204807930634e+18,13.5860634765625,-3.804835796356201,1.6021478176116943,1.7445306777954102
2026-01-05 13:41:20.814,1.7676204808231368e+18,13.61613671875,-2.275595664978028,0.14572453498840332,2.1804839372634888
2026-01-05 13:41:20.847,1.7676204808632392e+18,13.6562392578125,-1.328362226486206,0.14572453498840332,2.224395990371704
2026-01-05 13:41:20.880,1.7676204808933002e+18,13.686300170898438,-1.328362226486206,0.1259126663208007,1.3708889484405518
2026-01-05 13:41:20.913,1.7676204809434135e+18,13.73641357421875,-1.328362226486206,-0.07633763839155883,0.08043949035520992
2026-01-05 13:41:20.946,1.7676204809634557e+18,13.75645585487728,-1.328362226486206,0.14572453498840332,2.224395990371704
2026-01-05 13:41:20.979,1.7676204809834982e+18,13.776498291015624,-1.328362226486206,-0.07633763839155883,0.08043949035520992
2026-01-05 13:41:21.012,1.7676204810335972e+18,13.82659716796875,-1.2437620162963867,-0.07633763839155883,-0.949076533317566
2026-01-05 13:41:21.045,1.7676204810636605e+18,13.85666064453125,-1.225014090538025,0.1897792816162109,-0.8084912598133087
2026-01-05 13:41:21.078,1.7676204811037422e+18,13.8967421875,-1.1914066672325134,0.19535601139068604,-0.8084912598133087
2026-01-05 13:41:21.111,1.7676204811338025e+18,13.926802490234373,-1.148173689842224,0.1897792816162109,-0.8084912598133087
2026-01-05 13:41:21.144,1.7676204811588664e+18,13.951866455078124,-0.5715490281581879,0.19535601139068604,-0.34703437983989716
2026-01-05 13:41:21.177,1.7676204811839304e+18,13.976930419921874,-0.0788291692733764,0.2840147018432617,-0.34703437983989716
2026-01-05 13:41:21.210,1.7676204812240343e+18,14.017034423828123,0.0483086109161376,0.19535601139068604,-0.34703437983989716
2026-01-05 13:41:21.243,1.7676204812641487e+18,14.057148681640625,0.17575205699582852,0.1988978103665986,-1.9201807718314468
2026-01-05 13:41:21.276,1.7676204813042468e+18,14.097246826171874,0.17575205699582852,0.2840147018432617,-1.9201807718314468
2026-01-05 13:41:21.309,1.7676204813293128e+18,14.122312707950353,0.17575205699582852,0.1988978103665986,-1.9201807718314468
2026-01-05 13:41:21.342,1.7676204813543788e+18,14.147378784179686,-0.1783296465873718,0.1883172988891601,-0.880368709564209
2026-01-05 13:41:21.375,1.7676204813844562e+18,14.177456298828124,-0.1783296465873718,0.1883172988891601,-0.880368709564209
2026-01-05 13:41:21.408,1.7676204814245704e+18,14.2175703125,-0.1783296465873718,-0.6088571548461914,-0.880368709564209
2026-01-05 13:41:21.441,1.7676204814646838e+18,14.257683837890625,0.0685052871704101,-0.7183218002319336,-1.398991942405701
2026-01-05 13:41:21.474,1.7676204815047946e+18,14.297794677734377,1.2856073379516602,-2.5780906677246094,-1.5474153757095337
2026-01-05 13:41:21.507,1.7676204815248315e+18,14.31783154296875,2.241283893585205,-4.177995681762695,-1.5474153757095337
2026-01-05 13:41:21.540,1.767620481544879e+18,14.337879150390624,2.611866950988769,-4.486300468444824,-1.783456802368164
2026-01-05 13:41:21.573,1.7676204815849956e+18,14.37799560546875,2.611866950988769,-4.486300468444824,-1.9276781678199768
2026-01-05 13:41:21.606,1.767620481625074e+18,14.418073974609374,2.611866950988769,-5.571462631225586,-1.9276781678199768
2026-01-05 13:41:21.639,1.7676204816651487e+18,14.458148681640624,1.8911384344100952,-5.571462631225586,-1.783456802368164
2026-01-05 13:41:21.672,1.7676204816851876e+18,14.4781875,0.1606801152229309,-5.137495040893555,-1.783456802368164
2026-01-05 13:41:21.705,1.7676204817052262e+18,14.498226318359375,-1.5697782039642334,-5.137495040893555,-1.6440744400024414
2026-01-05 13:41:21.738,1.7676204817553654e+18,14.548365478515624,-1.5697782039642334,-5.137495040893555,-0.19260331988334656
2026-01-05 13:41:21.771,1.7676204817854328e+18,14.578432861328125,-1.6501307487487793,-4.362838745117188,0.6130276918411255
2026-01-05 13:41:21.804,1.7676204818154906e+18,14.608490600585938,-3.8890527486801147,-3.1613340377807617,1.1483965814113617
2026-01-05 13:41:21.837,1.767620481865591e+18,14.658591064453123,-6.168772220611572,0.6904234886169434,1.310142538825715
2026-01-05 13:41:21.870,1.76762048188565e+18,14.678649980147576,-6.168772220611572,1.7325749397277832,1.1483965814113617
2026-01-05 13:41:21.903,1.7676204819057088e+18,14.698708740234377,-6.168772220611572,2.223205804824829,0.6130276918411255
2026-01-05 13:41:21.936,1.7676204819457887e+18,14.73878857421875,-5.967767397562663,2.223205804824829,0.3034689426422119
2026-01-05 13:41:21.969,1.7676204819858988e+18,14.778898681640625,-5.241830190022786,1.7937333583831787,-0.4740245342254638
2026-01-05 13:41:22.002,1.7676204820259766e+18,14.8189765625,-4.51589298248291,1.7325749397277832,-1.6408010721206665
2026-01-05 13:41:22.035,1.7676204820660626e+18,14.8590625,-2.0913357734680176,1.1952990293502808,-1.7331231832504272
2026-01-05 13:41:22.068,1.7676204820861087e+18,14.879108520507813,-0.9282305240631104,1.1952990293502808,-2.400940716266632
2026-01-05 13:41:22.101,1.7676204821061545e+18,14.899154541015625,0.2348747253417968,1.1952990293502808,-2.701847791671753
2026-01-05 13:41:22.134,1.7676204821462817e+18,14.93928173828125,1.4417475491450895,0.9193998575210571,-2.701847791671753
2026-01-05 13:41:22.167,1.767620482186363e+18,14.97936279296875,1.4417475491450895,0.5968647003173828,-2.701847791671753
2026-01-05 13:41:22.200,1.7676204822264768e+18,15.019476806640624,1.4417475491450895,-1.323312282562256,-0.06493256986141205
2026-01-05 13:41:22.233,1.7676204822515272e+18,15.044527343749998,0.4769927263259883,-2.322098970413208,0.6630235314369202
2026-01-05 13:41:22.266,1.7676204822765778e+18,15.069577880859374,-2.5160934925079346,-2.322098970413208,0.6630235314369202
2026-01-05 13:41:22.299,1.7676204823166546e+18,15.109654663085937,-2.7189886569976807,-2.322098970413208,0.6630235314369202
2026-01-05 13:41:22.332,1.7676204823467205e+18,15.139720458984376,-2.7189886569976807,-1.9500718116760252,-0.186455488204956
2026-01-05 13:41:22.365,1.767620482386821e+18,15.179821044921876,-2.5160934925079346,-0.836705207824707,-1.834665298461914
2026-01-05 13:41:22.398,1.7676204824269302e+18,15.21993017578125,-1.9729390144348145,1.2778244018554688,-1.893721103668213
2026-01-05 13:41:22.431,1.7676204824469868e+18,15.239986938476562,-1.149945616722107,1.5333044528961182,-1.893721103668213
2026-01-05 13:41:22.464,1.7676204824670436e+18,15.260043701171876,-0.3269522190093994,1.5333044528961182,-1.834665298461914
2026-01-05 13:41:22.497,1.767620482507155e+18,15.300155029296874,-0.2009708881378173,1.5333044528961182,-1.4329047203063965
2026-01-05 13:41:22.530,1.7676204825472627e+18,15.3402626953125,-0.2009708881378173,0.9095344543457032,-1.4329047203063965
2026-01-05 13:41:22.563,1.7676204825773435e+18,15.370343505859374,-0.2009708881378173,0.32950292502504464,-1.4329047203063965
2026-01-05 13:41:22.596,1.767620482627473e+18,15.420472900390624,-0.642613410949707,0.0492506027221679,-1.931523442268372
2026-01-05 13:41:22.629,1.767620482647521e+18,15.44052091833159,-0.642613410949707,-0.042931556701660156,-1.931523442268372
2026-01-05 13:41:22.662,1.7676204826675692e+18,15.460569091796875,-0.642613410949707,-0.2505331039428711,-1.931523442268372
2026-01-05 13:41:22.695,1.7676204827076877e+18,15.500687744140626,1.1830456256866455,-1.8429489135742188,-1.8748979568481443
2026-01-05 13:41:22.728,1.7676204827477747e+18,15.540774658203125,2.6857481002807617,-3.094687461853028,-1.8748979568481443
2026-01-05 13:41:22.761,1.7676204827878497e+18,15.580849609375,2.6857481002807617,-3.2639780044555664,-1.8251861932513496
2026-01-05 13:41:22.794,1.7676204828078856e+18,15.600885420332064,2.9575627741970294,-4.31272865815917,-1.8251861932513496
2026-01-05 13:41:22.827,1.7676204828279214e+18,15.62092138671875,2.9575627741970294,-5.361471176147461,-1.8748979568481443
2026-01-05 13:41:22.860,1.7676204828679905e+18,15.660990478515624,2.258425712585449,-5.707711219787598,-3.5734752372485103
2026-01-05 13:41:22.893,1.767620482908058e+18,15.70105810546875,-1.131129264831543,-5.707711219787598,-3.461212781845614
2026-01-05 13:41:22.926,1.7676204829481262e+18,15.741126220703125,-1.6895275317252954,-5.707711219787598,-3.461212781845614
2026-01-05 13:41:22.959,1.767620482988207e+18,15.78120703125,-2.2479214668273926,-5.119176864624023,-3.461212781845614
2026-01-05 13:41:22.992,1.7676204830082445e+18,15.801244384765624,-3.4167239665985107,-4.654653549194336,-3.3489503264427185
2026-01-05 13:41:23.025,1.7676204830282819e+18,15.82128173828125,-4.585526466369629,-4.190130233764648,-1.616917610168457
2026-01-05 13:41:23.058,1.7676204830683558e+18,15.86135595703125,-4.998742580413818,-1.9784698486328125,-1.276666522026062
2026-01-05 13:41:23.091,1.767620483108443e+18,15.90144287109375,-5.787778854370117,0.111368179321289,-1.276666522026062
2026-01-05 13:41:23.124,1.7676204831485181e+18,15.94151806640625,-5.787778854370117,0.3412238930364715,-1.616917610168457
2026-01-05 13:41:23.157,1.767620483188631e+18,15.981631103515625,-5.62882654950057,0.571077823638916,-1.7529692649841309
2026-01-05 13:41:23.190,1.7676204832086776e+18,16.001677690060692,-5.62882654950057,0.3412238930364715,-1.7529692649841309
2026-01-05 13:41:23.223,1.7676204832287242e+18,16.02172412109375,-5.303780555725098,0.3412238930364715,-1.7529692649841309
2026-01-05 13:41:23.256,1.7676204832788244e+18,16.071824340820314,-2.891692638397217,0.3412238930364715,-1.7098265886306765
2026-01-05 13:41:23.289,1.7676204833088896e+18,16.1018896484375,-1.1197428703308103,0.0802021026611328,-1.7098265886306765
2026-01-05 13:41:23.322,1.7676204833489928e+18,16.14199267578125,-0.4945526123046875,0.0627326965332031,-1.6384687423706057
2026-01-05 13:41:23.355,1.7676204833690406e+18,16.16204072717575,1.3048630414464433,-0.41159456174320264,-1.6384687423706057
2026-01-05 13:41:23.388,1.7676204833890885e+18,16.182088623046877,1.5009632110595703,-0.885918140411377,-1.6384687423706057
2026-01-05 13:41:23.421,1.767620483429164e+18,16.2221640625,1.5009632110595703,-2.120522975921631,-1.4943718910217283
2026-01-05 13:41:23.454,1.7676204834692413e+18,16.262241455078126,1.5009632110595703,-2.120522975921631,-0.4081805944442749
2026-01-05 13:41:23.487,1.7676204835093496e+18,16.302349609375,-1.8155808448791504,-2.120522975921631,-0.4081805944442749
2026-01-05 13:41:23.520,1.7676204835494372e+18,16.342437255859377,-1.8155808448791504,-1.680929183959961,-0.4081805944442749
2026-01-05 13:41:23.553,1.7676204835694876e+18,16.36248767089844,-1.8155808448791504,-1.615616798400879,-0.4081805944442749
2026-01-05 13:41:23.586,1.767620483589538e+18,16.3825380859375,-1.2672863006591797,-1.018080234527588,-0.4081805944442749
2026-01-05 13:41:23.619,1.7676204836296422e+18,16.422642333984374,-1.2475337982177734,-1.018080234527588,-0.7589821219444275
2026-01-05 13:41:23.652,1.7676204836697475e+18,16.46274755859375,-0.8088326454162598,0.4624414443969726,-1.0386052131652832
2026-01-05 13:41:23.685,1.7676204837098506e+18,16.5028505859375,-0.7438445091247559,0.5958585739135742,-1.477954387664795
2026-01-05 13:41:23.718,1.767620483749962e+18,16.5429619140625,0.2705130577087402,0.6646890640258789,-1.98032808303833
2026-01-05 13:41:23.751,1.7676204837700132e+18,16.563013061523435,0.31624090671539307,1.028939962387085,-1.98032808303833
2026-01-05 13:41:23.784,1.767620483790064e+18,16.583064208984375,0.3619687557220459,1.028939962387085,-2.1809704303741455
2026-01-05 13:41:23.817,1.76762048383018e+18,16.62318017578125,0.8554297089576721,1.028939962387085,-2.1809704303741455
2026-01-05 13:41:23.850,1.7676204838702843e+18,16.6632841796875,0.9354229867458344,0.6051864624023438,-1.7244629263877869
2026-01-05 13:41:23.883,1.7676204839103895e+18,16.703389404296875,1.0154162645339966,0.4039778709411621,-1.7244629263877869
2026-01-05 13:41:23.916,1.7676204839304458e+18,16.72344592285156,1.0154162645339966,0.2027692794799804,-1.7666006088256836
2026-01-05 13:41:23.949,1.7676204839505024e+18,16.74350244140625,1.0154162645339966,0.2027692794799804,-1.7666006088256836
2026-01-05 13:41:23.982,1.7676204839906194e+18,16.783619384765625,1.3283967971801758,-0.3372249603271484,-2.3831729888916016
2026-01-05 13:41:24.015,1.767620484030717e+18,16.823717041015627,2.516716241836548,-1.6172447204589844,-2.670906543731689
2026-01-05 13:41:24.048,1.7676204840607944e+18,16.853794433593748,2.812419861605615,-3.054553508758545,-2.670906543731689
2026-01-05 13:41:24.081,1.7676204841108984e+18,16.9038984375,2.812419861605615,-6.386666297912598,-2.670906543731689
2026-01-05 13:41:24.114,1.767620484130954e+18,16.923954023770985,2.812419861605615,-6.386666297912598,-0.3150682388350865
2026-01-05 13:41:24.147,1.7676204841510098e+18,16.944009765625,2.6257214546203613,-6.640993627925,-0.3150682388350865
2026-01-05 13:41:24.180,1.7676204841910953e+18,16.98409521484375,2.512752056121826,-6.386666297912598,-0.3150682388350865
2026-01-05 13:41:24.213,1.767620484231189e+18,17.02418896484375,-1.5880120992660522,-4.223417282104492,-0.3150682388350865
2026-01-05 13:41:24.246,1.7676204842712776e+18,17.064277587890626,-2.7491614818573,-3.613750457763672,-0.3150682388350865
2026-01-05 13:41:24.279,1.7676204843013821e+18,17.094382080078127,-2.7491614818573,-2.1984338760375977,0.14202970266342163
2026-01-05 13:41:24.312,1.767620484326445e+18,17.119444946289065,-2.7491614818573,-1.086684226989746,0.14202970266342163
2026-01-05 13:41:24.345,1.7676204843515077e+18,17.1445078125,-2.7491614818573,0.0250654220581054,0.14202970266342163
2026-01-05 13:41:24.378,1.7676204843916052e+18,17.184605224609374,-2.7491614818573,1.9952178001403809,0.4738515317440033
2026-01-05 13:41:24.411,1.7676204844316915e+18,17.22469140625,-5.621877193450928,2.397591590881348,0.805673360824585
2026-01-05 13:41:24.444,1.7676204844718136e+18,17.264813720703124,-5.621877193450928,2.397591590881348,1.2558205127716064
2026-01-05 13:41:24.477,1.7676204844918582e+18,17.284858198618757,-5.621877193450928,1.9952178001403809,1.2558205127716064
2026-01-05 13:41:24.510,1.7676204845119027e+18,17.30490283203125,-4.624837875366211,1.861058235168457,1.2558205127716064
2026-01-05 13:41:24.543,1.7676204845520294e+18,17.345029541015624,-4.107982158660889,1.5600590705871582,-0.8160567879676819
2026-01-05 13:41:24.576,1.7676204845921052e+18,17.385105224609376,-1.660252571105957,1.23193359375,-0.8160567879676819
2026-01-05 13:41:24.609,1.7676204846321892e+18,17.425189208984374,0.27151445112279327,0.7768263816833496,-0.8160567879676819
2026-01-05 13:41:24.642,1.767620484672274e+18,17.46527392578125,0.27151445112279327,-0.5553956031799316,-0.5056155602581349
2026-01-05 13:41:24.675,1.7676204846923272e+18,17.48532710414876,0.27151445112279327,-0.5553956031799316,-0.5056155602581349
2026-01-05 13:41:24.708,1.7676204847123802e+18,17.505380126953124,0.0347676277160644,-2.450932064487267,1.3722382466442422
2026-01-05 13:41:24.741,1.767620484752455e+18,17.545454833984376,-2.2993595600128174,-1.486431121826172,1.3722382466442422
2026-01-05 13:41:24.774,1.7676204847925322e+18,17.5855322265625,-2.2993595600128174,-1.486431121826172,0.0728083252906799
2026-01-05 13:41:24.807,1.7676204848326054e+18,17.62560546875,-2.2993595600128174,-1.486431121826172,-0.0106977522373199
2026-01-05 13:41:24.840,1.7676204848726917e+18,17.665691650390624,-1.6745948791503906,-1.486431121826172,-0.0106977522373199
2026-01-05 13:41:24.873,1.767620484892738e+18,17.685738037109374,-1.3703045845031738,-0.10468053817749023,-0.0106977522373199
2026-01-05 13:41:24.906,1.7676204849127844e+18,17.705784423828124,-1.066014289855957,1.889063835144043,-0.3903237730264663
2026-01-05 13:41:24.939,1.767620484952908e+18,17.745907958984375,-0.2237977981567382,1.889063835144043,-0.7699497938156128
2026-01-05 13:41:24.972,1.7676204849829716e+18,17.7759716796875,0.38081663846969604,1.889063835144043,-0.7699497938156128
2026-01-05 13:41:25.005,1.7676204850331e+18,17.82610009765625,0.618140697479248,0.527857780456543,-0.49782641475292655
2026-01-05 13:41:25.038,1.7676204850531474e+18,17.84614753869682,0.894539475440979,0.35731106410576774,-1.1003504991531372
2026-01-05 13:41:25.071,1.7676204850731948e+18,17.86619482421875,0.894539475440979,0.1867656707763672,-1.1003504991531372
2026-01-05 13:41:25.104,1.7676204851133005e+18,17.906300537109374,0.894539475440979,0.1867656707763672,-1.172501564025879
2026-01-05 13:41:25.137,1.7676204851534088e+18,17.94640869140625,0.894539475440979,0.0719404220581054,-1.172501564025879
2026-01-05 13:41:25.170,1.7676204851935153e+18,17.986515380859377,0.894539475440979,-0.37978315353393555,-1.172501564025879
2026-01-05 13:41:25.203,1.7676204852336228e+18,18.026622802734376,1.0861451625823977,-0.37978315353393555,-1.264127492904663
2026-01-05 13:41:25.236,1.7676204852536783e+18,18.046678344726566,1.291237235069275,-0.37978315353393555,-1.264127492904663
2026-01-05 13:41:25.269,1.767620485273734e+18,18.06673388671875,1.4963293075561523,-0.8315067291259766,-1.264127492904663
2026-01-05 13:41:25.302,1.7676204853138445e+18,18.106844482421877,1.853865623474121,-2.6619815826416016,-1.264127492904663
2026-01-05 13:41:25.335,1.7676204853539162e+18,18.146916259765625,2.981161594390869,-5.377285003662109,-1.264127492904663
2026-01-05 13:41:25.368,1.7676204853939968e+18,18.186996826171875,2.981161594390869,-5.377285003662109,-1.1439305543899536
2026-01-05 13:41:25.401,1.7676204854140385e+18,18.20703845214844,2.981161594390869,-5.377285003662109,-1.1439305543899536
2026-01-05 13:41:25.434,1.76762048543408e+18,18.227080078125,2.471839189529419,-4.705580711364746,-0.4323935508728027
2026-01-05 13:41:25.467,1.7676204854741683e+18,18.267168212890624,2.0203747749328613,-4.140314102172852,-1.1439305543899536
2026-01-05 13:41:25.500,1.767620485514256e+18,18.307255859375,-2.9107666015625,-3.2397327423095703,-1.1439305543899536
2026-01-05 13:41:25.533,1.767620485554347e+18,18.347346923828123,-3.438872098922729,-0.9375286102294922,-0.4323935508728027
2026-01-05 13:41:25.566,1.7676204855944484e+18,18.387448486328125,-3.5212044715881348,0.3406658172607422,0.3461717963218689
2026-01-05 13:41:25.599,1.7676204856144932e+18,18.407493408203123,-3.6735031604766846,1.6897392272949219,1.125663310289383
2026-01-05 13:41:25.632,1.7676204856345382e+18,18.427538330078125,-4.277103900909424,1.898019790649414,1.125663310289383
2026-01-05 13:41:25.665,1.7676204856746222e+18,18.467622314453124,-4.436239719390869,2.190886974334717,1.125663310289383
2026-01-05 13:41:25.698,1.7676204857147075e+18,18.50770751953125,-4.436239719390869,2.190886974334717,0.5777108669281006
2026-01-05 13:41:25.731,1.767620485744809e+18,18.53780895996094,-4.277103900909424,1.898019790649414,0.2421342134475708
2026-01-05 13:41:25.764,1.7676204857949263e+18,18.58792626953125,-3.117796897888184,1.304758071899414,-0.061381334711720914
2026-01-05 13:41:25.797,1.7676204858149665e+18,18.607966597072355,-2.0255205083078236,1.1735048616739283,-0.061381334711720914
2026-01-05 13:41:25.830,1.767620485835007e+18,18.628007080078124,-2.0255205083078236,1.042250633239746,-0.061381334711720914
2026-01-05 13:41:25.863,1.7676204858751058e+18,18.668105712890625,-0.9332356452941896,-0.0549569129943847,-0.061381334711720914
2026-01-05 13:41:25.896,1.7676204859151898e+18,18.708189697265624,-0.6996505642241693,-2.10837909658218,1.0626315717247001
2026-01-05 13:41:25.929,1.7676204859552748e+18,18.74827465820313,-0.6996505642241693,-2.10837909658218,1.0626315717247001
2026-01-05 13:41:25.962,1.7676204859753198e+18,18.768319868537795,-0.6996505642241693,-2.117757797241211,1.207111120223999
2026-01-05 13:41:25.995,1.767620485995365e+18,18.788365234375,-0.6996505642241693,-2.117757797241211,1.0626315717247001
2026-01-05 13:41:26.028,1.7676204860354606e+18,18.82846069335937,-1.7929422855377195,-2.10837909658218,0.4570639133453369
2026-01-05 13:41:26.061,1.767620486075557e+18,18.86855712890625,-1.7929422855377195,-0.9800968170166016,0.3616055846214294
2026-01-05 13:41:26.094,1.767620486115655e+18,18.908655029296877,-1.2405874729156494,-0.9800968170166016,0.0285398662090301
2026-01-05 13:41:26.127,1.767620486155819e+18,18.948819091796874,-1.2405874729156494,1.3182706832885742,-1.0843126475811005
2026-01-05 13:41:26.160,1.767620486180869e+18,18.973869018554687,-0.942085325717926,1.9519561529159546,-1.1106182783842087
2026-01-05 13:41:26.193,1.767620486205919e+18,18.9989189453125,-0.6435831785202026,1.9519561529159546,-1.1106182783842087
2026-01-05 13:41:26.226,1.767620486235987e+18,19.028987060546875,0.0600683689117431,1.9519561529159546,-1.0843126475811005
2026-01-05 13:41:26.259,1.767620486276079e+18,19.0690791015625,0.876908540725708,1.2773571014404297,-0.6921882033348083
2026-01-05 13:41:26.292,1.7676204863161772e+18,19.10917724609375,0.876908540725708,0.1764488220214843,-0.6921882033348083
2026-01-05 13:41:26.325,1.767620486356286e+18,19.14928588867188,0.876908540725708,-0.0612773895263671,-0.6921882033348083
2026-01-05 13:41:26.358,1.7676204863763453e+18,19.169345414720258,0.5974185556351459,-0.2541644244075604,-1.470629105386196
2026-01-05 13:41:26.391,1.7676204863964047e+18,19.18940478515625,0.5974185556351459,-0.4470529556274414,-1.470629105386196
2026-01-05 13:41:26.424,1.7676204864365215e+18,19.229521484375,0.5974185556351459,-0.9091205596923828,-1.470629105386196
2026-01-05 13:41:26.457,1.7676204864766303e+18,19.26963037109375,2.1028835773468018,-1.1047344207763672,-1.746105432510376
2026-01-05 13:41:26.490,1.7676204865167022e+18,19.3097021484375,2.6449131965637207,-2.710731506347656,-1.746105432510376
2026-01-05 13:41:26.523,1.7676204865367572e+18,19.329757279937585,2.6449131965637207,-4.524100661563064,-1.2940607070922852
2026-01-05 13:41:26.556,1.7676204865568123e+18,19.349812255859376,2.6449131965637207,-4.524100661563064,-1.2940607070922852
2026-01-05 13:41:26.589,1.7676204865968817e+18,19.389881591796875,2.4727022647857666,-5.268092155456543,-0.1821743845939636
2026-01-05 13:41:26.622,1.7676204866369562e+18,19.4299560546875,1.862617015838623,-5.268092155456543,-0.0455196499824523
2026-01-05 13:41:26.655,1.7676204866770337e+18,19.47003369140625,-0.5641899108886719,-4.466541290283203,0.25838780403137207
2026-01-05 13:41:26.688,1.7676204867071237e+18,19.50012390136719,-2.2997376918792725,-3.109720230102539,-0.0455196499824523
2026-01-05 13:41:26.721,1.767620486732169e+18,19.525169006347657,-2.338882327079773,-1.4769058227539062,0.1347901374101638
2026-01-05 13:41:26.754,1.7676204867572142e+18,19.550214111328124,-2.378026962280273,0.1559085845947265,0.25838780403137207
2026-01-05 13:41:26.787,1.7676204867973012e+18,19.59030126953125,-2.564986228942871,1.571082592010498,0.25838780403137207
2026-01-05 13:41:26.820,1.7676204868373765e+18,19.63037646484375,-3.549314022064209,2.88797664642334,0.3474985361099243
2026-01-05 13:41:26.853,1.767620486877449e+18,19.67044897460937,-4.951628923416138,2.88797664642334,0.545547366142273
2026-01-05 13:41:26.886,1.7676204869175237e+18,19.710523681640623,-4.951628923416138,2.88797664642334,0.7435961961746216
2026-01-05 13:41:26.919,1.7676204869375846e+18,19.73058459472656,-4.951628923416138,2.1005518436431885,0.545547366142273
2026-01-05 13:41:26.952,1.7676204869576456e+18,19.7506455078125,-4.384870529174805,1.313127040863037,0.3474985361099243
2026-01-05 13:41:26.985,1.7676204869977213e+18,19.790721435546875,-2.505209922790528,0.8777990341186523,0.1261661648750305
2026-01-05 13:41:27.018,1.767620487037804e+18,19.830803955078125,-1.3260869979858398,0.5766220092773438,-0.3073328733444214
2026-01-05 13:41:27.051,1.7676204870778913e+18,19.87089135742188,0.2536821365356445,0.1585636138916015,-1.0893762111663818
2026-01-05 13:41:27.084,1.7676204870979284e+18,19.89092846679688,2.555337905883789,-0.4758906364440918,-1.4723481528453264
2026-01-05 13:41:27.117,1.7676204871179656e+18,19.91096557617188,2.555337905883789,-0.9157447814941406,-1.4723481528453264
2026-01-05 13:41:27.150,1.7676204871580344e+18,19.951034423828126,2.555337905883789,-0.9157447814941406,-1.4723481528453264
2026-01-05 13:41:27.183,1.7676204871981194e+18,19.991119384765625,-2.4054455757141118,-1.829580307006836,-0.2043954730033874
2026-01-05 13:41:27.216,1.7676204872381962e+18,20.0311962890625,-2.4967726502928236,-2.778824963694874,0.2841854691505432
2026-01-05 13:41:27.249,1.7676204872782725e+18,20.0712724609375,-2.5881004333496094,-2.1235475540161133,0.4074020683765411
2026-01-05 13:41:27.282,1.767620487298313e+18,20.091312910548446,-2.4967726502928236,-2.1235475540161133,0.4074020683765411
2026-01-05 13:41:27.315,1.7676204873183534e+18,20.111353515625,-2.4054455757141118,-2.1235475540161133,0.2841854691505432
2026-01-05 13:41:27.348,1.7676204873584387e+18,20.151438720703126,-1.7802391052246094,0.4927291870117187,-0.5839529037475586
2026-01-05 13:41:27.381,1.76762048739852e+18,20.19152001953125,-1.5286580324172974,1.3160772323608398,-0.7468066811561584
2026-01-05 13:41:27.414,1.7676204874386122e+18,20.2316123046875,-0.1334843635559082,1.3160772323608398,-0.7468066811561584
2026-01-05 13:41:27.447,1.7676204874786798e+18,20.2716796875,0.2646762132644653,1.3160772323608398,-0.6588461473584175
2026-01-05 13:41:27.480,1.767620487498728e+18,20.29172790527344,0.5253384709358215,1.043168067932129,-0.6588461473584175
2026-01-05 13:41:27.513,1.767620487518776e+18,20.31177612304688,0.5253384709358215,0.770258903503418,-0.6588461473584175
2026-01-05 13:41:27.546,1.7676204875588792e+18,20.351879150390623,0.5253384709358215,0.4762420654296875,-0.6588461473584175
2026-01-05 13:41:27.579,1.7676204875989952e+18,20.3919951171875,0.5780240324118591,-0.4971685409545898,-0.9243500232696532
2026-01-05 13:41:27.612,1.7676204876391007e+18,20.4321005859375,0.5780240324118591,-0.6118040084838867,-1.6505684852600098
2026-01-05 13:41:27.645,1.7676204876591619e+18,20.45216190949092,0.5780240324118591,-0.7499913577678556,-1.6505684852600098
2026-01-05 13:41:27.678,1.7676204876792233e+18,20.472223388671875,0.8885130286216736,-0.8881797790527344,-1.6505684852600098
2026-01-05 13:41:27.711,1.7676204877193375e+18,20.51233740234375,1.5818681716918943,-0.9984149932861328,-1.705995821538244
2026-01-05 13:41:27.744,1.7676204877594368e+18,20.55243676757813,2.870765209197998,-3.3503332138061523,-1.602662205696106
2026-01-05 13:41:27.777,1.7676204877995228e+18,20.592522705078125,2.870765209197998,-4.759286808634579,-0.0104144811630249
2026-01-05 13:41:27.810,1.767620487839636e+18,20.632635986328125,2.870765209197998,-4.759286808634579,-0.0104144811630249
2026-01-05 13:41:27.843,1.7676204878596805e+18,20.65268049766983,2.409264741415432,-5.269554138183594,-0.2356419563293457
2026-01-05 13:41:27.876,1.7676204878797248e+18,20.672724853515625,1.9477678537368772,-4.759286808634579,0.0269893705844879
2026-01-05 13:41:27.909,1.7676204879198533e+18,20.712853271484374,1.390813231468201,-4.2490234375,-0.0537566542625427
2026-01-05 13:41:27.942,1.7676204879599355e+18,20.752935546875,-2.734696388244629,-3.3815479278564453,-0.0537566542625427
2026-01-05 13:41:27.975,1.767620488000033e+18,20.793032958984377,-2.966808557510376,0.1373805999755859,-0.02466881275177
2026-01-05 13:41:28.008,1.767620488040131e+18,20.833131103515623,-3.090540647506714,1.196361064910889,0.0269893705844879
2026-01-05 13:41:28.041,1.7676204880601805e+18,20.853180541992188,-3.090540647506714,2.2369394302368164,0.0670018196105957
2026-01-05 13:41:28.074,1.76762048808023e+18,20.87322998046875,-3.446384906768799,2.8664660453796387,0.1586724519729614
2026-01-05 13:41:28.107,1.767620488120315e+18,20.91331494140625,-4.878269195556641,2.8664660453796387,0.6273242831230164
2026-01-05 13:41:28.140,1.767620488160433e+18,20.953432861328125,-4.878269195556641,2.8664660453796387,0.6273242831230164
2026-01-05 13:41:28.173,1.7676204882005148e+18,20.993514892578126,-4.878269195556641,0.9163861274719238,0.6273242831230164
2026-01-05 13:41:28.206,1.7676204882205568e+18,21.013556840433324,-3.8150905855760504,0.9163861274719238,0.5717435767771999
2026-01-05 13:41:28.239,1.7676204882405985e+18,21.0335986328125,-2.751920223236084,0.7560466269210393,0.4101495146751404
2026-01-05 13:41:28.272,1.7676204882806753e+18,21.07367529296875,-1.2535195350646973,0.5957083702087402,-0.0423413515090942
2026-01-05 13:41:28.305,1.7676204883207557e+18,21.11375561523437,-1.2535195350646973,-1.326308250427246,-1.1190531253814695
2026-01-05 13:41:28.338,1.7676204883608312e+18,21.153831298828123,-0.990623950958252,-1.326308250427246,-1.1190531253814695
2026-01-05 13:41:28.371,1.767620488400913e+18,21.19391284179688,-0.990623950958252,-1.326308250427246,-1.1190531253814695
2026-01-05 13:41:28.404,1.767620488420943e+18,21.213943115234372,-1.4464788436889648,-2.845064163208008,1.4699689149856567
2026-01-05 13:41:28.437,1.7676204884409874e+18,21.2339873046875,-2.665568590164185,-3.2142696380615234,1.4699689149856567
2026-01-05 13:41:28.470,1.767620488481099e+18,21.27409912109375,-2.126537799835205,-1.094351291656494,1.4699689149856567
2026-01-05 13:41:28.503,1.7676204885211756e+18,21.31417553710937,-2.126537799835205,0.5304770469665527,0.3764384388923645
2026-01-05 13:41:28.536,1.7676204885612426e+18,21.35424267578125,-1.5030484199523926,0.80865478515625,0.010383938022778705
2026-01-05 13:41:28.569,1.7676204886013153e+18,21.3943154296875,-1.5030484199523926,2.617859363555908,-0.3556734025478363
2026-01-05 13:41:28.602,1.7676204886213742e+18,21.414374311844135,-1.1720261300447012,2.617859363555908,-0.3556734025478363
2026-01-05 13:41:28.635,1.7676204886414333e+18,21.43443334960937,-0.8410012722015381,2.617859363555908,0.010383938022778705
2026-01-05 13:41:28.668,1.767620488681512e+18,21.474511962890624,0.1035327911376953,2.1165966987609863,-0.3556734025478363
2026-01-05 13:41:28.701,1.7676204887216054e+18,21.51460546875,0.5467121601104736,1.5453739166259766,-0.8046709299087524
2026-01-05 13:41:28.734,1.7676204887617024e+18,21.554702392578125,0.902076244354248,-0.6472387313842773,-1.1272704005241394
2026-01-05 13:41:28.767,1.7676204887817498e+18,21.574749755859372,0.902076244354248,-0.7836208343505859,-1.1272704005241394
2026-01-05 13:41:28.800,1.767620488801797e+18,21.594797119140622,0.902076244354248,-0.8558750152587891,-1.4059395790100098
2026-01-05 13:41:28.833,1.7676204888418995e+18,21.6348994140625,0.902076244354248,-0.8558750152587891,-1.4059395790100098
2026-01-05 13:41:28.866,1.7676204888820104e+18,21.67501025390625,0.902076244354248,-1.1102237701416016,-1.4059395790100098
2026-01-05 13:41:28.899,1.767620488922106e+18,21.715106201171874,1.2282226085662842,-1.7212181091308594,-0.4183187381515705
2026-01-05 13:41:28.932,1.767620488962183e+18,21.755182861328127,2.256230115890503,-4.22337818145752,-0.4183187381515705
2026-01-05 13:41:28.965,1.7676204889822226e+18,21.775222456450198,2.5044565200805664,-4.436491362352098,-0.4183187381515705
2026-01-05 13:41:28.998,1.7676204890022623e+18,21.79526220703125,2.6825373018914727,-4.436491362352098,-1.565814971923828
2026-01-05 13:41:29.031,1.76762048904237e+18,21.8353701171875,2.5044565200805664,-4.33521842956543,-1.743942379951477
2026-01-05 13:41:29.064,1.7676204890824443e+18,21.8754443359375,2.256230115890503,-4.22337818145752,-1.743942379951477
2026-01-05 13:41:29.097,1.7676204891225244e+18,21.9155244140625,-2.5709986686706543,-4.209320068359375,-1.743942379951477
2026-01-05 13:41:29.130,1.7676204891525798e+18,21.945579833984375,-2.5709986686706543,-2.5794010162353516,-0.3509504795074463
2026-01-05 13:41:29.163,1.7676204891776407e+18,21.97064084427609,-2.579308271408081,-1.020648155471043,-0.013093308447836238
2026-01-05 13:41:29.196,1.7676204892027016e+18,21.99570166015625,-2.588117257273095,0.5380926132202148,0.3247612416744232
2026-01-05 13:41:29.229,1.7676204892427878e+18,22.035787841796875,-2.588117257273095,2.92386245727539,1.0005595684051514
2026-01-05 13:41:29.262,1.767620489282895e+18,22.07589501953125,-4.077589988708496,2.92386245727539,1.0005595684051514
2026-01-05 13:41:29.295,1.7676204893229734e+18,22.115973388671875,-4.679244041442871,2.92386245727539,1.0005595684051514
2026-01-05 13:41:29.328,1.7676204893430118e+18,22.136011962890628,-4.679244041442871,2.781825542449951,0.7762792557477951
2026-01-05 13:41:29.361,1.7676204893630505e+18,22.156050537109376,-4.679244041442871,1.251861572265625,0.2402105033397674
2026-01-05 13:41:29.394,1.7676204894031245e+18,22.19612451171875,-3.859118938446045,0.3682379722595215,0.1848489046096801
2026-01-05 13:41:29.427,1.7676204894432061e+18,22.2362060546875,-3.235722541809082,0.3682379722595215,0.0264826416969299
2026-01-05 13:41:29.460,1.767620489483285e+18,22.27628491210937,-1.6640338897705078,-0.1764774322509765,-0.2001051902770996
2026-01-05 13:41:29.493,1.7676204895233687e+18,22.31636865234375,-0.4335427284240722,-0.4408121109008789,-0.5873485207557678
2026-01-05 13:41:29.526,1.7676204895434066e+18,22.336406571863012,-0.4335427284240722,-1.4736167413993178,-1.0230672955513
2026-01-05 13:41:29.559,1.7676204895634442e+18,22.3564443359375,-0.4335427284240722,-1.4736167413993178,-1.0230672955513
2026-01-05 13:41:29.592,1.767620489603524e+18,22.396524169921875,-0.0760374069213867,-2.1271753311157227,-1.0230672955513
2026-01-05 13:41:29.625,1.7676204896436006e+18,22.4366005859375,-2.067546129226685,-2.1271753311157227,-0.4670785367488861
2026-01-05 13:41:29.658,1.7676204896836844e+18,22.476684326171878,-2.3467539548873906,-1.9055306911468506,-0.4670785367488861
2026-01-05 13:41:29.691,1.7676204897237655e+18,22.516765625,-2.3467539548873906,-1.9055306911468506,-0.4670785367488861
2026-01-05 13:41:29.724,1.7676204897438093e+18,22.536809326171877,-2.067546129226685,-1.9055306911468506,-0.6054587215185165
2026-01-05 13:41:29.757,1.767620489763853e+18,22.55685302734375,-2.067546129226685,-1.6399531364440918,-0.6054587215185165
2026-01-05 13:41:29.790,1.7676204898039526e+18,22.59695263671875,-1.610196590423584,-0.6489477157592773,-0.6054587215185165
2026-01-05 13:41:29.823,1.7676204898440643e+18,22.637064208984373,-1.4268091917037964,1.950954556465149,0.49252384901046753
2026-01-05 13:41:29.856,1.7676204898741207e+18,22.667120605468746,-0.6599551439285278,1.950954556465149,0.49252384901046753
2026-01-05 13:41:29.889,1.7676204898991813e+18,22.69218127441406,-0.35344964265823364,1.950954556465149,0.49252384901046753
2026-01-05 13:41:29.922,1.767620489924242e+18,22.717241943359376,-0.0469441413879394,1.1343517303466797,0.1050147712230682
2026-01-05 13:41:29.955,1.7676204899643292e+18,22.7573291015625,-0.033349871635437,0.7822399139404297,-0.690178632736206
2026-01-05 13:41:29.988,1.7676204900044227e+18,22.79742260742188,-0.0005716625601053,0.2958879470825195,-1.1355682611465454
2026-01-05 13:41:30.021,1.7676204900344957e+18,22.82749572753906,-0.0005716625601053,-0.1410064697265625,-1.1373665928840637
2026-01-05 13:41:30.054,1.76762049008463e+18,22.877630126953125,-0.0005716625601053,-0.230234146118164,-1.384821534156799
2026-01-05 13:41:30.087,1.767620490104664e+18,22.8976640625,-0.0005716625601053,-0.230234146118164,-1.384821534156799
2026-01-05 13:41:30.120,1.767620490124719e+18,22.917718994140625,-0.0005716625601053,-0.230234146118164,-1.384821534156799
2026-01-05 13:41:30.153,1.767620490164821e+18,22.957821044921875,0.6310971975326538,-0.4202213287353515,0.3240256011486053
2026-01-05 13:41:30.186,1.767620490204925e+18,22.99792504882813,1.0820757150650024,-0.4534721374511719,0.3240256011486053
2026-01-05 13:41:30.219,1.76762049024503e+18,23.03802978515625,1.1929138898849487,-2.5913238525390625,0.3240256011486053
2026-01-05 13:41:30.252,1.7676204902650644e+18,23.058064453125,1.762345314025879,-3.816880226135254,0.4641420841217041
2026-01-05 13:41:30.285,1.7676204902851039e+18,23.078103759765625,1.77484929561615,-4.130999565124512,-0.7445682287216187
2026-01-05 13:41:30.318,1.7676204903252132e+18,23.118213134765625,2.0875914096832275,-4.807713508605957,-0.8276468515396118
2026-01-05 13:41:30.351,1.7676204903652861e+18,23.1582861328125,2.0875914096832275,-4.807713508605957,-0.7445682287216187
2026-01-05 13:41:30.384,1.7676204904053622e+18,23.198362060546877,2.0875914096832275,-4.130999565124512,0.8000085353851318
2026-01-05 13:41:30.417,1.767620490445443e+18,23.23844311523437,-2.8058109283447266,-4.023532867431641,0.8000085353851318
2026-01-05 13:41:30.450,1.7676204904654758e+18,23.258475874445462,-2.8058109283447266,-1.7769004226016185,0.8000085353851318
2026-01-05 13:41:30.483,1.7676204904855089e+18,23.2785087890625,-3.2722562762425333,0.2811307907104492,0.8000085353851318
2026-01-05 13:41:30.516,1.767620490525578e+18,23.318577880859376,-3.2722562762425333,0.4697494506835937,1.008939266204834
2026-01-05 13:41:30.549,1.767620490565677e+18,23.35867700195313,-3.678382396697998,1.7519025802612305,1.008939266204834
2026-01-05 13:41:30.582,1.7676204906057487e+18,23.398748779296877,-4.491992950439453,2.1835150718688965,1.008939266204834
2026-01-05 13:41:30.615,1.7676204906458596e+18,23.438859619140626,-4.508068084716797,2.1835150718688965,1.008939266204834
2026-01-05 13:41:30.648,1.767620490665903e+18,23.458903076171875,-4.508068084716797,2.1835150718688965,1.008939266204834
2026-01-05 13:41:30.681,1.7676204906859466e+18,23.478946533203125,-4.491992950439453,0.693260669708252,0.8957709670066833
2026-01-05 13:41:30.714,1.7676204907260283e+18,23.5190283203125,-3.898008346557617,0.693260669708252,0.7601317763328552
2026-01-05 13:41:30.747,1.767620490766107e+18,23.55910693359375,-2.8468494415283203,0.6271758079528809,-0.5345405787229538
2026-01-05 13:41:30.780,1.767620490796197e+18,23.589197143554685,-1.5202836990356445,0.5309338569641113,-0.6576395630836487
2026-01-05 13:41:30.813,1.7676204908212444e+18,23.614244348647798,1.2360308546877041,0.2910072266241017,-0.6576395630836487
2026-01-05 13:41:30.846,1.7676204908462917e+18,23.63929174804688,1.2360308546877041,0.2910072266241017,-0.5345405787229538
2026-01-05 13:41:30.879,1.767620490886399e+18,23.67939892578125,1.2360308546877041,0.2816891670227052,-0.3627834916114807
2026-01-05 13:41:30.912,1.7676204909264753e+18,23.71947534179688,-1.9733152389526367,-0.709357738494873,-0.045448899269104
2026-01-05 13:41:30.945,1.7676204909665628e+18,23.759562744140624,-2.4551191540559305,-1.3505666168957504,0.2742222749106854
2026-01-05 13:41:30.978,1.7676204910066414e+18,23.79964135742188,-2.5709214210510254,-1.3505666168957504,0.2742222749106854
2026-01-05 13:41:31.011,1.7676204910316961e+18,23.8246962031389,-2.4551191540559305,-1.3505666168957504,-0.045448899269104
2026-01-05 13:41:31.044,1.7676204910567508e+18,23.849750854492186,-2.2961626052856445,-1.2868566513061523,0.2742222749106854
2026-01-05 13:41:31.077,1.7676204910868204e+18,23.8798203125,-2.2961626052856445,-1.0545244216918943,0.2742222749106854
2026-01-05 13:41:31.110,1.7676204911269074e+18,23.919907470703127,-1.1297883987426758,0.7884654998779297,-0.2103973776102066
2026-01-05 13:41:31.143,1.7676204911669816e+18,23.959981689453127,-0.8291028738021851,0.9539084434509277,-0.5465066432952881
2026-01-05 13:41:31.176,1.7676204912070595e+18,24.0000595703125,-0.2474054098129272,1.1193513870239258,0.599958062171936
2026-01-05 13:41:31.209,1.7676204912271434e+18,24.02014343261719,0.18654841184616094,0.9539084434509277,-0.5465066432952881
2026-01-05 13:41:31.242,1.7676204912472274e+18,24.040227294921877,0.2516244053840637,0.7884654998779297,-0.6003625392913818
2026-01-05 13:41:31.275,1.7676204912873336e+18,24.080333740234376,0.2516244053840637,0.3261356353759765,-0.6003625392913818
2026-01-05 13:41:31.308,1.7676204913274332e+18,24.12043310546875,0.2516244053840637,-0.057520447157314636,-0.7121776342391968
2026-01-05 13:41:31.341,1.7676204913675218e+18,24.160521728515626,-0.1619669198989868,-0.2849349975585937,-0.7458619475364685
2026-01-05 13:41:31.374,1.7676204913875715e+18,24.18057148890113,-0.1647486686706543,-0.057520447157314636,-0.7458619475364685
2026-01-05 13:41:31.407,1.767620491407621e+18,24.20062109375,-0.1647486686706543,-0.057520447157314636,-0.7121776342391968
2026-01-05 13:41:31.440,1.7676204914477315e+18,24.2407314453125,-0.1619669198989868,-0.0693244934082031,-0.1448047161102295
2026-01-05 13:41:31.473,1.7676204914878364e+18,24.28083642578125,0.4211679100990295,-0.4411735534667969,-0.1448047161102295
2026-01-05 13:41:31.506,1.7676204915279465e+18,24.320946533203124,1.2844126224517822,-1.002577781677246,-0.1448047161102295
2026-01-05 13:41:31.539,1.7676204915680497e+18,24.361049560546878,1.7237684726715088,-2.7328195571899414,0.13381436620001086
2026-01-05 13:41:31.572,1.7676204915881062e+18,24.38110632324219,1.9842311143875124,-3.8166146278381348,0.13381436620001086
2026-01-05 13:41:31.605,1.767620491608163e+18,24.4011630859375,2.244693756103516,-3.8166146278381348,-1.238690972328186
2026-01-05 13:41:31.638,1.767620491648242e+18,24.441241943359376,2.244693756103516,-3.8166146278381348,-2.0576154738664627
2026-01-05 13:41:31.671,1.767620491688342e+18,24.481342041015623,2.244693756103516,-4.54403018951416,-0.2633673250675201
2026-01-05 13:41:31.704,1.7676204917183933e+18,24.51139343261719,2.2408618330955505,-3.5435410205853657,-1.9622832949390188
2026-01-05 13:41:31.737,1.7676204917685207e+18,24.561520751953125,-2.2844669818878174,-3.284385681152344,-2.0576154738664627
2026-01-05 13:41:31.770,1.767620491788555e+18,24.58155497600228,-2.2844669818878174,-3.135240077972412,-1.9622832949390188
2026-01-05 13:41:31.803,1.7676204918085893e+18,24.60158935546875,-2.6697592735290527,-2.543044090270996,-1.2014079093933103
2026-01-05 13:41:31.836,1.7676204918487004e+18,24.641700439453125,-2.6697592735290527,-1.9591169357299805,-1.2014079093933103
2026-01-05 13:41:31.869,1.767620491888812e+18,24.68181201171875,-2.6697592735290527,-1.7319707870483398,-1.133639931678772
2026-01-05 13:41:31.902,1.767620491928901e+18,24.72190112304688,-4.401533126831055,1.9390602111816408,-0.8863792419433595
2026-01-05 13:41:31.935,1.7676204919539569e+18,24.746956787109376,-4.6822603940963745,1.9390602111816408,-0.8863792419433595
2026-01-05 13:41:31.968,1.7676204919790124e+18,24.772012451171875,-4.962987661361694,1.9390602111816408,-0.7115368843078613
2026-01-05 13:41:32.001,1.7676204920090924e+18,24.80209228515625,-5.072431564331055,0.6324644088745117,-0.7115368843078613
2026-01-05 13:41:32.034,1.7676204920491791e+18,24.84217919921875,-5.072431564331055,0.5005416870117188,-0.5636178255081177
2026-01-05 13:41:32.067,1.7676204920893015e+18,24.88230151367188,-5.072431564331055,0.3663969039916992,-0.39769922552423076
2026-01-05 13:41:32.100,1.767620492129399e+18,24.92239892578125,-2.8003149032592773,-0.2998418807983398,-0.39769922552423076
2026-01-05 13:41:32.133,1.7676204921494525e+18,24.94245255893481,-2.453465138160177,-0.2998418807983398,-0.5636178255081177
2026-01-05 13:41:32.166,1.7676204921695063e+18,24.96250634765625,-2.1066126823425293,-0.45649491582768686,-0.7522504329681396
2026-01-05 13:41:32.199,1.7676204922096161e+18,25.0026162109375,-2.1066126823425293,-0.6131491661071777,-1.1997036933898926
2026-01-05 13:41:32.232,1.7676204922497347e+18,25.042734619140624,-0.8544940948486328,-1.1492094993591309,-1.5248817205429075
2026-01-05 13:41:32.265,1.7676204922898145e+18,25.082814453125,-0.8263325691223145,-2.9597291946411133,-1.5486219990163999
2026-01-05 13:41:32.298,1.7676204923299254e+18,25.12292529296875,0.812691847045591,-3.05082690287666,-1.5486219990163999
2026-01-05 13:41:32.331,1.7676204923499707e+18,25.142970780876745,-0.8263325691223145,-3.05082690287666,-1.5723622774898922
2026-01-05 13:41:32.364,1.767620492370016e+18,25.16301611328125,-0.8263325691223145,-2.9597291946411133,-1.5723622774898922
2026-01-05 13:41:32.397,1.767620492410094e+18,25.203093994140627,-0.2556912899017334,-0.5463690757751465,-0.5342367887496948
2026-01-05 13:41:32.430,1.7676204924501852e+18,25.24318530273437,-0.2556912899017334,0.06256103515625,-0.5342367887496948
2026-01-05 13:41:32.463,1.7676204924802588e+18,25.273258789062503,-0.2556912899017334,0.4685492515563965,-2.013248383998871
2026-01-05 13:41:32.496,1.767620492505329e+18,25.29832885742188,-0.2556912899017334,0.4685492515563965,-2.013248383998871
2026-01-05 13:41:32.529,1.767620492530399e+18,25.32339892578125,-0.2556912899017334,0.4369382858276367,-3.11667330182882
2026-01-05 13:41:32.562,1.767620492580525e+18,25.373525146484376,-0.19204533100128168,0.4369382858276367,-3.11667330182882
2026-01-05 13:41:32.595,1.7676204926106028e+18,25.403602783203127,-0.12839937210083,0.4369382858276367,-3.11667330182882
2026-01-05 13:41:32.628,1.767620492650702e+18,25.4437021484375,-0.18082644643155305,0.3860578536987304,-2.9288806915283203
2026-01-05 13:41:32.661,1.7676204926907973e+18,25.48379736328125,-0.18082644643155305,0.3860578536987304,-2.149068832397461
2026-01-05 13:41:32.694,1.7676204927158659e+18,25.508866002997088,-0.18082644643155305,0.3018660065354787,-2.149068832397461
2026-01-05 13:41:32.727,1.7676204927409344e+18,25.533934448242185,-0.6510548293590546,-0.3866477012634278,-2.149068832397461
2026-01-05 13:41:32.760,1.767620492771006e+18,25.564005859375,-0.7383508086204529,-0.673243522644043,-2.5484747886657715
2026-01-05 13:41:32.793,1.7676204928111101e+18,25.604110107421874,-1.2740240097045898,-0.7153501510620117,-2.5484747886657715
2026-01-05 13:41:32.826,1.76762049285122e+18,25.644219970703126,-1.2740240097045898,-0.9888544082641602,-2.5484747886657715
2026-01-05 13:41:32.859,1.7676204928913244e+18,25.684324462890626,-1.2740240097045898,-0.9888544082641602,-2.272638320922852
2026-01-05 13:41:32.892,1.7676204929113702e+18,25.7043701171875,-0.7600052952766418,-0.9888544082641602,-1.4710155725479128
2026-01-05 13:41:32.925,1.7676204929314158e+18,25.724415771484374,-0.0746500492095947,-0.9888544082641602,-1.4710155725479128
2026-01-05 13:41:32.958,1.767620492971511e+18,25.764510986328126,-0.0746500492095947,-0.2600641250610351,-1.4710155725479128
2026-01-05 13:41:32.991,1.7676204930116047e+18,25.804604736328123,0.1901956796646118,-0.2600641250610351,-1.3845024704933167
2026-01-05 13:41:33.024,1.767620493051695e+18,25.84469506835937,0.5501943528652191,-0.7567353248596191,-1.3845024704933167
2026-01-05 13:41:33.057,1.767620493071745e+18,25.864745117187496,-0.0746500492095947,-1.2534065246582031,-1.8504019975662231
2026-01-05 13:41:33.090,1.7676204930917952e+18,25.884795166015625,-0.7700241208076477,-1.2534065246582031,-1.8504019975662231
2026-01-05 13:41:33.123,1.7676204931318815e+18,25.92488159179688,-1.806782603263855,-1.2534065246582031,-1.3845024704933167
2026-01-05 13:41:33.156,1.7676204931719552e+18,25.964955078125,-1.806782603263855,-1.2534065246582031,-0.8286715745925903
2026-01-05 13:41:33.189,1.767620493212048e+18,26.0050478515625,-1.806782603263855,0.6935796737670898,-0.1871130466461181
2026-01-05 13:41:33.222,1.7676204932421053e+18,26.035105346679686,-2.0118331909179688,0.8089580535888672,0.6644530296325684
2026-01-05 13:41:33.255,1.7676204932671703e+18,26.060170471191405,-2.0118331909179688,1.5342360734939575,0.9522193670272827
2026-01-05 13:41:33.288,1.7676204932922355e+18,26.085235595703125,-1.742924690246582,1.6795086860656738,1.239985704421997
2026-01-05 13:41:33.321,1.767620493342341e+18,26.135341064453122,-1.7780694961547852,1.6795086860656738,1.70464026927948
2026-01-05 13:41:33.354,1.7676204933723978e+18,26.165397705078124,-1.7785271406173706,2.216480255126953,1.70464026927948
2026-01-05 13:41:33.387,1.7676204934124716e+18,26.20547143554688,-1.7780694961547852,2.2796175319376015,1.70464026927948
2026-01-05 13:41:33.420,1.7676204934425324e+18,26.23553234863281,-1.2754310214027937,2.2796175319376015,0.02364972233772278
2026-01-05 13:41:33.453,1.7676204934675786e+18,26.260578699237048,-1.2754310214027937,2.2796175319376015,-0.2560479044914245
2026-01-05 13:41:33.486,1.7676204934926252e+18,26.285625244140626,-0.7723309993743896,1.4846763610839844,-0.2560479044914245
2026-01-05 13:41:33.519,1.7676204935327089e+18,26.325708984375,-0.2680437564849853,1.0535602569580078,-0.2560479044914245
2026-01-05 13:41:33.552,1.7676204935728046e+18,26.3658046875,0.8913609981536865,0.9154167175292968,0.9318249225616456
2026-01-05 13:41:33.585,1.7676204936129047e+18,26.40590478515625,1.4152014255523682,0.9154167175292968,0.9318249225616456
2026-01-05 13:41:33.618,1.7676204936329546e+18,26.42595475621464,1.4152014255523682,0.9154167175292968,0.9318249225616456
2026-01-05 13:41:33.651,1.7676204936530048e+18,26.4460048828125,1.4152014255523682,0.4574718475341797,0.5457231998443604
2026-01-05 13:41:33.684,1.7676204936931295e+18,26.48612939453125,-0.0933020114898681,0.4574718475341797,0.5457231998443604
2026-01-05 13:41:33.717,1.7676204937332204e+18,26.526220458984376,-0.0933020114898681,0.4574718475341797,0.5457231998443604
2026-01-05 13:41:33.750,1.7676204937733207e+18,26.56632080078125,-0.3378406763076782,-3.3205690383911133,1.1327120065689087
2026-01-05 13:41:33.783,1.7676204938033766e+18,26.596376831054688,-0.4227513074874878,-3.3205690383911133,1.3342466354370115
2026-01-05 13:41:33.816,1.7676204938284472e+18,26.621447326660157,-0.6033985614776611,-3.452157735824585,1.3342466354370115
2026-01-05 13:41:33.849,1.7676204938535178e+18,26.646517822265626,-0.6317206621170044,-3.452157735824585,1.3342466354370115
2026-01-05 13:41:33.882,1.7676204938935982e+18,26.68659814453125,-1.362228512763977,-2.6378135681152344,-0.1321812868118286
2026-01-05 13:41:33.915,1.767620493933682e+18,26.726681884765625,-1.362228512763977,-1.625382423400879,-0.1321812868118286
2026-01-05 13:41:33.948,1.7676204939737546e+18,26.766754638671877,-0.6033985614776611,-1.625382423400879,-0.1321812868118286
2026-01-05 13:41:33.981,1.7676204940138627e+18,26.806862548828125,-0.1394733190536499,0.1386613845825195,0.1026147603988647
2026-01-05 13:41:34.014,1.7676204940339128e+18,26.826912675425984,-0.0074910766643858095,0.6527863417042291,0.1026147603988647
2026-01-05 13:41:34.047,1.7676204940539628e+18,26.84696264648437,0.1244901418685913,0.8751659393310547,0.1026147603988647
2026-01-05 13:41:34.080,1.767620494094071e+18,26.887071044921875,0.5025484561920166,0.9283204078674316,-0.9231337308883668
2026-01-05 13:41:34.113,1.7676204941341711e+18,26.927171142578125,1.6178829669952393,0.9474609640580096,-1.1600363552570343
2026-01-05 13:41:34.146,1.767620494164242e+18,26.95724206542969,1.6178829669952393,0.9474609640580096,-1.419449806213379
2026-01-05 13:41:34.179,1.7676204941893012e+18,26.982301427765794,1.6742944121360779,0.9666013717651368,-1.5906206369400024
2026-01-05 13:41:34.212,1.7676204942143606e+18,27.00736059570313,1.6742944121360779,0.9666013717651368,-1.5906206369400024
2026-01-05 13:41:34.245,1.7676204942644716e+18,27.057471435546876,1.0373308658599854,1.4959039688110352,-1.5906206369400024
2026-01-05 13:41:34.278,1.7676204942945533e+18,27.08755322265625,-0.0800924301147461,1.4959039688110352,-0.8113517463207245
2026-01-05 13:41:34.311,1.7676204943346414e+18,27.12764135742188,-0.1874243021011352,1.5430850982666016,-0.1162082999944686
2026-01-05 13:41:34.344,1.7676204943647012e+18,27.157701416015627,-0.3226780891418457,1.7467918395996094,-0.0430692434310913
2026-01-05 13:41:34.377,1.7676204943947791e+18,27.18777905273437,-0.3226780891418457,1.916687488555908,-0.0145496726036071
2026-01-05 13:41:34.410,1.7676204944148244e+18,27.207824462890624,-0.3191325664520263,1.7467918395996094,-0.0145496726036071
2026-01-05 13:41:34.443,1.7676204944549028e+18,27.24790283203125,-0.3191325664520263,1.7467918395996094,-0.0145496726036071
2026-01-05 13:41:34.476,1.7676204944950098e+18,27.288009765625,0.9695371977179572,-0.905752182006836,0.17671806695173087
2026-01-05 13:41:34.509,1.7676204945350858e+18,27.3280859375,0.9695371977179572,-3.916377353785104,0.17671806695173087
2026-01-05 13:41:34.542,1.767620494555121e+18,27.348121049391185,0.9695371977179572,-3.916377353785104,0.17671806695173087
2026-01-05 13:41:34.575,1.767620494575156e+18,27.368156005859376,-0.3370618820190429,-3.916377353785104,0.17671806695173087
2026-01-05 13:41:34.608,1.7676204946153088e+18,27.408308837890623,-0.6134552955627441,-3.578387260437012,0.4388290047645569
2026-01-05 13:41:34.641,1.7676204946553925e+18,27.448392578125,-0.8105268478393555,-2.3361830711364746,0.6099866628646851
2026-01-05 13:41:34.674,1.767620494695466e+18,27.488466064453124,-1.5339956283569336,-1.060378074645996,0.6099866628646851
2026-01-05 13:41:34.707,1.7676204947355343e+18,27.528534423828123,-2.929265022277832,0.5474157333374023,1.2465806007385254
2026-01-05 13:41:34.740,1.7676204947555707e+18,27.548570678710938,-2.929265022277832,1.7209630012512207,1.2465806007385254
2026-01-05 13:41:34.773,1.767620494775607e+18,27.56860693359375,-2.929265022277832,2.894510269165039,1.2465806007385254
2026-01-05 13:41:34.806,1.7676204948157066e+18,27.60870654296875,-2.095139503479004,3.1893372535705566,-0.1384861916303634
2026-01-05 13:41:34.839,1.767620494855778e+18,27.64877807617188,-1.783726930618286,3.1893372535705566,-0.6266549825668335
2026-01-05 13:41:34.872,1.767620494895891e+18,27.688890869140625,-1.661458969116211,3.1893372535705566,-0.8321670255728131
2026-01-05 13:41:34.905,1.7676204949359657e+18,27.728965576171877,-0.0757975578308105,1.62001371383667,-0.8321670255728131
2026-01-05 13:41:34.938,1.7676204949560148e+18,27.74901469274139,0.8155291078431105,1.3723602294921875,-1.0692218542099
2026-01-05 13:41:34.971,1.767620494976064e+18,27.76906396484375,1.28480863571167,1.148949304503163,-1.1730964183807373
2026-01-05 13:41:35.004,1.767620495016168e+18,27.80916796875,1.28480863571167,0.6778812408447266,-0.8321670255728131
2026-01-05 13:41:35.037,1.7676204950562826e+18,27.84928271484375,1.28480863571167,-0.1640005111694336,-0.4912349879741668
2026-01-05 13:41:35.070,1.7676204950863442e+18,27.879344360351563,1.28480863571167,-3.3683600425720215,0.69826740026474
2026-01-05 13:41:35.103,1.7676204951113969e+18,27.90439691162109,0.871071398258209,-3.682673454284668,0.69826740026474
2026-01-05 13:41:35.136,1.7676204951364495e+18,27.929449462890624,-0.9027584791183474,-3.682673454284668,0.69826740026474
2026-01-05 13:41:35.169,1.7676204951765363e+18,27.96953637695313,-0.9082131385803224,-4.8761146068573,-0.1908947527408599
2026-01-05 13:41:35.202,1.7676204952166554e+18,28.0096552734375,-0.9082131385803224,-3.682673454284668,-0.1908947527408599
2026-01-05 13:41:35.235,1.7676204952567506e+18,28.04975048828125,-0.9082131385803224,-0.3245668411254883,-0.1908947527408599
2026-01-05 13:41:35.268,1.7676204952968732e+18,28.089873291015625,-0.5100560188293457,-0.1140871047973632,0.0740124732255935
2026-01-05 13:41:35.301,1.767620495321925e+18,28.11492519579754,-0.28978796804123685,0.5312024359424469,0.13373702322850936
2026-01-05 13:41:35.334,1.7676204953469773e+18,28.139977294921877,-0.06951820850372314,1.176496982574463,0.13373702322850936
2026-01-05 13:41:35.367,1.7676204953770496e+18,28.170049560546875,0.7088444232940674,2.398344039916992,0.13373702322850936
2026-01-05 13:41:35.400,1.767620495417119e+18,28.21011889648437,1.38438081741333,2.776554584503174,0.0809184610843658
2026-01-05 13:41:35.433,1.7676204954571924e+18,28.2501923828125,1.38438081741333,2.776554584503174,-0.0632921755313873
2026-01-05 13:41:35.466,1.7676204954972667e+18,28.2902666015625,1.38438081741333,2.776554584503174,-0.572805839242497
2026-01-05 13:41:35.499,1.7676204955173245e+18,28.310324418619878,0.27074018299374103,2.42015021623566,-0.572805839242497
2026-01-05 13:41:35.532,1.7676204955373821e+18,28.330382080078124,0.26241135597229,1.8137712478637693,-0.7794201374053955
2026-01-05 13:41:35.565,1.7676204955774715e+18,28.370471435546875,-0.4819743633270263,1.7499289512634275,-1.226525068283081
2026-01-05 13:41:35.598,1.7676204956175698e+18,28.41056982421875,-0.4819743633270263,1.543170928955078,-1.6877522468566897
2026-01-05 13:41:35.631,1.7676204956576507e+18,28.450650634765623,0.26241135597229,1.16046142578125,-1.6877522468566897
2026-01-05 13:41:35.664,1.7676204956776906e+18,28.470690673828123,0.6095194816589355,-0.6404380798339844,-0.7889301776885986
2026-01-05 13:41:35.697,1.7676204956977272e+18,28.490727294921875,0.7789912223815918,-2.217630386352539,-0.7889301776885986
2026-01-05 13:41:35.730,1.7676204957378007e+18,28.53080078125,0.7789912223815918,-4.431995391845703,-0.5832931995391846
2026-01-05 13:41:35.763,1.7676204957779064e+18,28.570906494140623,0.7789912223815918,-4.431995391845703,-0.5832931995391846
2026-01-05 13:41:35.796,1.7676204958179855e+18,28.610985595703124,-0.8668985366821289,-4.431995391845703,-0.26661346986807954
2026-01-05 13:41:35.829,1.767620495858101e+18,28.65110107421875,-1.252148151397705,-0.8949041366577148,-0.1708757281303405
2026-01-05 13:41:35.862,1.767620495878143e+18,28.671143144144736,-1.4414904309169514,-0.6913732740433716,-0.1708757281303405
2026-01-05 13:41:35.895,1.767620495898185e+18,28.69118505859375,-1.630831241607666,-0.4878439903259277,1.119894027709961
2026-01-05 13:41:35.928,1.767620495938274e+18,28.731274169921875,-2.9500744342803955,1.3498740196228027,1.5242892503738403
2026-01-05 13:41:35.961,1.767620495978353e+18,28.771352783203124,-3.126542091369629,4.75755500793457,1.5242892503738403
2026-01-05 13:41:35.994,1.7676204960184453e+18,28.8114453125,-3.126542091369629,4.75755500793457,1.5242892503738403
2026-01-05 13:41:36.027,1.7676204960585244e+18,28.8515244140625,-3.126542091369629,4.75755500793457,-0.5147601962089539
2026-01-05 13:41:36.060,1.7676204960785958e+18,28.871595947265625,-1.864007830619812,3.224501609802246,-1.91872239112854
2026-01-05 13:41:36.093,1.7676204960986394e+18,28.891639404296875,-0.3799786567687988,2.322884559631348,-1.91872239112854
2026-01-05 13:41:36.126,1.7676204961387215e+18,28.93172143554688,1.359105348587036,0.9112796783447266,-1.91872239112854
2026-01-05 13:41:36.159,1.7676204961788073e+18,28.971807373046875,1.7529048919677734,0.1035614013671875,-0.9642296433448792
2026-01-05 13:41:36.192,1.7676204962189028e+18,29.01190283203125,3.000517606735229,-1.0463981628417969,0.382598340511322
2026-01-05 13:41:36.225,1.767620496238953e+18,29.03195300292969,1.7529048919677734,-1.333162784576416,0.382598340511322
2026-01-05 13:41:36.258,1.7676204962590031e+18,29.05200317382813,1.372971534729004,-1.333162784576416,0.382598340511322
2026-01-05 13:41:36.291,1.7676204962990866e+18,29.09208666992188,1.372971534729004,-1.333162784576416,0.50136598944664
2026-01-05 13:41:36.324,1.7676204963392115e+18,29.13221142578125,-0.7604093551635742,-3.5657167434692383,-1.0885291809459812
2026-01-05 13:41:36.357,1.767620496379294e+18,29.1722939453125,-0.7604093551635742,-3.5657167434692383,-1.0885291809459812
2026-01-05 13:41:36.390,1.7676204964194104e+18,29.212410400390624,-0.6858285069465637,-2.0092554092407227,-0.6777798570692539
2026-01-05 13:41:36.423,1.7676204964394511e+18,29.232451171875,-0.6858285069465637,-2.0092554092407227,-0.6777798570692539
2026-01-05 13:41:36.456,1.7676204964594918e+18,29.252491943359374,-0.1915609836578369,-2.0092554092407227,-0.6777798570692539
2026-01-05 13:41:36.489,1.7676204964996083e+18,29.2926083984375,0.2320961952209472,0.2206010818481445,-0.6777798570692539
2026-01-05 13:41:36.522,1.7676204965396895e+18,29.332689453125,1.0622572898864746,2.580387592315674,-1.1126666069030762
2026-01-05 13:41:36.555,1.767620496569748e+18,29.362747924804687,1.0622572898864746,2.580387592315674,-1.1126666069030762
2026-01-05 13:41:36.588,1.767620496609831e+18,29.402830932617185,1.0622572898864746,2.580387592315674,-0.7024306746908067
2026-01-05 13:41:36.621,1.7676204966348984e+18,29.427898401303572,0.9874644398856653,2.499078674940776,-0.7024306746908067
2026-01-05 13:41:36.654,1.767620496659966e+18,29.452966064453125,0.7615665197372437,1.0950040817260742,-0.7024306746908067
2026-01-05 13:41:36.687,1.7676204967000556e+18,29.4930556640625,0.3609771728515625,1.0950040817260742,-0.7024306746908067
2026-01-05 13:41:36.720,1.7676204967401347e+18,29.533134765625,0.3609771728515625,1.0845508575439453,-0.7878838071149404
2026-01-05 13:41:36.753,1.7676204967802207e+18,29.573220703125,0.3609771728515625,1.0845508575439453,-0.7878838071149404
2026-01-05 13:41:36.786,1.767620496800266e+18,29.59326591345967,1.14546340401494,0.47201187769973907,-0.7878838071149404
2026-01-05 13:41:36.819,1.7676204968203113e+18,29.61331127929688,1.14546340401494,-0.9605951309204102,-0.1069011092185974
2026-01-05 13:41:36.852,1.7676204968603912e+18,29.65339111328125,1.14546340401494,-4.435085296630859,-0.1069011092185974
2026-01-05 13:41:36.885,1.7676204969005012e+18,29.693501220703126,-0.3129925727844238,-4.435085296630859,-0.1069011092185974
2026-01-05 13:41:36.918,1.7676204969405842e+18,29.733584228515625,-0.7826194763183594,-4.435085296630859,-0.14027321338653576
2026-01-05 13:41:36.951,1.767620496980655e+18,29.77365502929688,-1.1847424507141113,-2.717885971069336,-0.14027321338653576
2026-01-05 13:41:36.984,1.7676204970006932e+18,29.793693359375002,-1.1847424507141113,-1.7219953536987305,-0.14027321338653576
2026-01-05 13:41:37.017,1.7676204970207316e+18,29.813731689453125,-1.5868654251098633,-0.726104736328125,0.678409218788147
2026-01-05 13:41:37.050,1.767620497060807e+18,29.853806884765625,-3.445764303207397,3.0727791786193848,0.678409218788147
2026-01-05 13:41:37.083,1.7676204971008963e+18,29.893896240234376,-3.445764303207397,3.0727791786193848,0.678409218788147
2026-01-05 13:41:37.116,1.7676204971409897e+18,29.93398974609375,-3.445764303207397,3.0727791786193848,-0.6201044321060181
2026-01-05 13:41:37.149,1.7676204971810785e+18,29.97407861328125,-2.63911247253418,1.451488971710205,-0.7851928319399581
2026-01-05 13:41:37.182,1.7676204972061504e+18,29.99915054890831,0.4704964970017218,1.451488971710205,-0.950279951095581
2026-01-05 13:41:37.215,1.7676204972312223e+18,30.024222290039063,2.0109675526618958,0.3612943324870421,-0.7851928319399581
2026-01-05 13:41:37.248,1.7676204972612908e+18,30.05429077148437,2.0109675526618958,-0.7288918495178223,-0.7851928319399581
2026-01-05 13:41:37.281,1.7676204972913905e+18,30.084390502929686,2.0109675526618958,-1.5228304862976074,-0.16328459854033772
2026-01-05 13:41:37.314,1.767620497341497e+18,30.1344970703125,-0.0216331481933593,-2.3282368258310813,-0.16328459854033772
2026-01-05 13:41:37.347,1.7676204973665684e+18,30.159568456621024,-0.6817566131030044,-2.3282368258310813,1.2854003384709358
2026-01-05 13:41:37.380,1.7676204973916396e+18,30.1846396484375,-0.6817566131030044,-3.948396682739258,-0.16328459854033772
2026-01-05 13:41:37.413,1.767620497421713e+18,30.214712890625,-0.929828643798828,-3.445122718811035,-0.9310250282287598
2026-01-05 13:41:37.446,1.7676204974617958e+18,30.2547958984375,-0.929828643798828,-2.3282368258310813,-0.9310250282287598
2026-01-05 13:41:37.479,1.7676204975018726e+18,30.29487255859375,0.1691005229949951,0.4231548309326172,-0.7431034743785858
2026-01-05 13:41:37.512,1.7676204975419584e+18,30.33495849609375,0.1947400569915771,0.4231548309326172,-0.7823899388313293
2026-01-05 13:41:37.545,1.767620497562e+18,30.354999877929686,0.5210590362548828,1.0018062591552734,-0.7431034743785858
2026-01-05 13:41:37.578,1.7676204975820413e+18,30.375041259765624,0.8473780155181885,1.5804576873779297,-0.7038170099258423
2026-01-05 13:41:37.611,1.7676204976221494e+18,30.4151494140625,0.8473780155181885,2.632731437683105,-0.5257561802864075
2026-01-05 13:41:37.644,1.7676204976622318e+18,30.455231689453125,0.8473780155181885,2.840494155883789,-0.5257561802864075
2026-01-05 13:41:37.677,1.7676204977023048e+18,30.4953046875,-0.3642416000366211,2.898924827575684,-0.5257561802864075
2026-01-05 13:41:37.710,1.767620497742376e+18,30.5353759765625,-1.005713939666748,3.115344524383545,0.0595994219183921
2026-01-05 13:41:37.743,1.7676204977624325e+18,30.555432495117188,-1.005713939666748,3.390194892883301,-0.5584495067596436
2026-01-05 13:41:37.776,1.767620497782489e+18,30.575489013671877,-0.8805224895477295,3.115344524383545,-1.0573450848460197
2026-01-05 13:41:37.809,1.7676204978225743e+18,30.61557421875,-0.8805224895477295,3.115344524383545,-1.0573450848460197
2026-01-05 13:41:37.842,1.7676204978626455e+18,30.6556455078125,1.5894975662231443,-3.953327178955078,-0.5584495067596436
2026-01-05 13:41:37.875,1.767620497902713e+18,30.695713134765622,1.9038739204406736,-4.8626393154057155,-0.5584495067596436
2026-01-05 13:41:37.908,1.7676204979227635e+18,30.715763549804684,1.9038739204406736,-4.8626393154057155,-1.1987110376358032
2026-01-05 13:41:37.941,1.767620497942814e+18,30.73581396484375,1.5894975662231443,-4.8626393154057155,-0.6230695247650146
2026-01-05 13:41:37.974,1.7676204979928988e+18,30.78589880371094,0.6608226299285889,-4.39251184463501,0.8097957968711853
2026-01-05 13:41:38.007,1.767620498022956e+18,30.8159560546875,-1.0000724792480469,-2.7361040115356445,2.1322803497314453
2026-01-05 13:41:38.040,1.7676204980630287e+18,30.85602880859375,-1.5445256233215332,-0.7294979095458984,2.1322803497314453
2026-01-05 13:41:38.073,1.7676204981031096e+18,30.896109619140624,-2.9190337657928467,0.432103157043457,2.5327072143554688
2026-01-05 13:41:38.106,1.767620498123147e+18,30.916146894935757,-3.8140570971971273,2.2904872336944733,2.5327072143554688
2026-01-05 13:41:38.139,1.7676204981431844e+18,30.93618432617188,-3.8140570971971273,4.148885726928711,2.5327072143554688
2026-01-05 13:41:38.172,1.7676204981832886e+18,30.97628857421875,-3.8140570971971273,4.148885726928711,0.8619649410247803
2026-01-05 13:41:38.205,1.7676204982233646e+18,31.016364501953124,-3.801853656768799,4.148885726928711,0.047280840575695
2026-01-05 13:41:38.238,1.7676204982634404e+18,31.0564404296875,-1.832045674324036,1.7299799919128418,-0.967423975467682
2026-01-05 13:41:38.271,1.7676204983034995e+18,31.09649951171875,1.8886427879333496,0.9427003860473632,-0.967423975467682
2026-01-05 13:41:38.304,1.7676204983235382e+18,31.116538208007814,1.8886427879333496,0.9427003860473632,-0.967423975467682
2026-01-05 13:41:38.337,1.7676204983435768e+18,31.136576904296877,1.8886427879333496,-0.13248348236083984,-0.5894719362258911
2026-01-05 13:41:38.370,1.767620498383656e+18,31.17665600585937,1.301422119140625,-0.13248348236083984,-0.0437803976237773
2026-01-05 13:41:38.403,1.7676204984237402e+18,31.216740234375,0.0804524421691894,-0.7564277648925781,0.4830558905606106
2026-01-05 13:41:38.436,1.767620498463812e+18,31.25681201171875,-0.05623304843902588,-3.917663097381592,0.4830558905606106
2026-01-05 13:41:38.469,1.767620498488858e+18,31.28185799611347,-0.05623304843902588,-3.917663097381592,0.6220960617065432
2026-01-05 13:41:38.502,1.767620498513904e+18,31.30690417480469,-0.5232286685517755,-3.917663097381592,0.6220960617065432
2026-01-05 13:41:38.535,1.7676204985439636e+18,31.336963623046877,-0.5232286685517755,0.420391321182251,0.4830558905606106
2026-01-05 13:41:38.568,1.7676204985840458e+18,31.3770458984375,-0.5615372657775879,0.420391321182251,-0.6103925704956055
2026-01-05 13:41:38.601,1.7676204986241318e+18,31.4171318359375,-0.5756096839904785,0.420391321182251,-0.6103925704956055
2026-01-05 13:41:38.634,1.767620498654224e+18,31.447223876953124,-0.7055695875219434,0.8522276878356934,-0.6103925704956055
2026-01-05 13:41:38.667,1.7676204986792712e+18,31.47227121531681,-0.5756096839904785,0.8522276878356934,-0.6582879424095154
2026-01-05 13:41:38.700,1.7676204987043185e+18,31.497318359375,-0.5615372657775879,0.9131441116333008,-0.6582879424095154
2026-01-05 13:41:38.733,1.7676204987443814e+18,31.53738134765625,0.4096126556396484,1.621385097503662,0.1531284749507904
2026-01-05 13:41:38.766,1.7676204987844636e+18,31.577463623046874,0.4096126556396484,3.061662197113037,0.1531284749507904
2026-01-05 13:41:38.799,1.7676204988245734e+18,31.617573486328126,0.4096126556396484,3.319060802459717,-0.6582879424095154
2026-01-05 13:41:38.832,1.7676204988646518e+18,31.65765185546875,-0.7502405643463135,3.319060802459717,-0.952926754951477
2026-01-05 13:41:38.865,1.7676204988847017e+18,31.677701782226563,-0.7502405643463135,3.311957359313965,-0.952926754951477
2026-01-05 13:41:38.898,1.7676204989047516e+18,31.697751708984374,-0.8235531449317932,3.311957359313965,-0.952926754951477
2026-01-05 13:41:38.931,1.767620498944822e+18,31.737822021484376,-0.8235531449317932,2.975968837738037,-0.0692489147186279
2026-01-05 13:41:38.964,1.7676204989849147e+18,31.77791479492188,-0.6672019958496094,1.6846585273742676,-0.0692489147186279
2026-01-05 13:41:38.997,1.7676204990250015e+18,31.81800146484375,0.3883817195892334,-0.739771842956543,-0.0692489147186279
2026-01-05 13:41:39.030,1.7676204990450557e+18,31.838055741848333,0.8803672800006268,-3.9356150608733245,-0.0692489147186279
2026-01-05 13:41:39.063,1.7676204990651098e+18,31.85810986328125,0.8803672800006268,-5.599040985107422,-0.0692489147186279
2026-01-05 13:41:39.096,1.7676204991051802e+18,31.89818017578125,0.8803672800006268,-5.599040985107422,-1.1228489875793457
2026-01-05 13:41:39.129,1.7676204991452477e+18,31.938247802734374,-0.583615779876709,-5.599040985107422,0.4059208631515503
2026-01-05 13:41:39.162,1.7676204991853238e+18,31.97832373046875,-1.382740497589111,-1.5151948928833008,0.6343512535095215
2026-01-05 13:41:39.195,1.767620499225411e+18,32.0184111328125,-2.1125879287719727,-1.1890926361083984,0.6343512535095215
2026-01-05 13:41:39.228,1.7676204992454595e+18,32.03845947265625,-2.42925763130188,-0.653285026550293,1.4128248095512392
2026-01-05 13:41:39.261,1.7676204992655078e+18,32.0585078125,-2.745927333831787,-0.1174774169921875,1.4128248095512392
2026-01-05 13:41:39.294,1.7676204993055844e+18,32.09858447265625,-2.657057285308838,2.42740249633789,1.4128248095512392
2026-01-05 13:41:39.327,1.7676204993456543e+18,32.138654296875,-2.657057285308838,2.42740249633789,0.5458052754402161
2026-01-05 13:41:39.360,1.767620499385722e+18,32.17872216796875,-2.657057285308838,2.42740249633789,-0.8086992314115947
2026-01-05 13:41:39.393,1.7676204994257864e+18,32.218786376953126,-1.731593370437622,1.2563061714172363,-0.8086992314115947
2026-01-05 13:41:39.426,1.7676204994458237e+18,32.23882365274826,-0.24682585131065804,1.2563061714172363,-0.8086992314115947
2026-01-05 13:41:39.459,1.767620499465861e+18,32.25886108398438,-0.24682585131065804,1.2563061714172363,-0.7213471531867981
2026-01-05 13:41:39.492,1.7676204995059433e+18,32.298943359375,-0.24682585131065804,1.4964599609375,-0.7213471531867981
2026-01-05 13:41:39.525,1.767620499546039e+18,32.3390390625,0.558874249458313,1.4964599609375,-0.5268999338150024
2026-01-05 13:41:39.558,1.7676204995861192e+18,32.379119140625,0.558874249458313,1.4964599609375,-0.440876953303814
2026-01-05 13:41:39.591,1.7676204996061624e+18,32.39916223144532,-0.2699308395385742,-0.07448434829711936,-0.440876953303814
2026-01-05 13:41:39.624,1.7676204996262054e+18,32.419205322265626,0.0683577060699462,-1.7699575424194336,0.048622503876686
2026-01-05 13:41:39.657,1.7676204996662822e+18,32.4592822265625,0.558874249458313,-1.7699575424194336,0.048622503876686
