datetime,time,seconds_elapsed,z,y,x
2026-01-05 13:41:07.350,1.7676204673504707e+18,0.143470703125,0.8733462078691888,0.1857030391693115,-0.4801400899887085
2026-01-05 13:41:07.383,1.7676204673905766e+18,0.18357666015625,0.8407792415860033,0.3778201639652252,-0.5210680663585663
2026-01-05 13:41:07.416,1.7676204674306685e+18,0.22366845703125,0.8082122753028176,0.5699372887611389,-0.5619960427284241
2026-01-05 13:41:07.449,1.7676204674708004e+18,0.26380029296875,0.775645309019632,0.5742133259773254,-0.8203920125961304
2026-01-05 13:41:07.482,1.7676204675108864e+18,0.303886474609375,0.7105113764532609,0.5742133259773254,-0.8203920125961304
2026-01-05 13:41:07.515,1.767620467530932e+18,0.32393196251736817,0.6453769386044935,0.5992587804794312,-0.8509352803230286
2026-01-05 13:41:07.548,1.7676204675509773e+18,0.343977294921875,0.2272418737411499,1.0268623907615047,-0.932791233062744
2026-01-05 13:41:07.581,1.767620467591065e+18,0.384065185546875,0.1215621829032898,1.0268623907615047,-0.8509352803230286
2026-01-05 13:41:07.614,1.7676204676311903e+18,0.424190185546875,0.0775798857212066,0.5992587804794312,-0.6139195561408997
2026-01-05 13:41:07.647,1.7676204676712855e+18,0.464285400390625,-0.0452040284872055,0.5992587804794312,-0.7034113109111786
2026-01-05 13:41:07.680,1.7676204677113874e+18,0.504387451171875,-0.08307767519727347,0.7376197874546051,-0.7034113109111786
2026-01-05 13:41:07.713,1.7676204677364572e+18,0.5294573364257813,-0.12095132190734145,0.484416127204895,-0.6139195561408997
2026-01-05 13:41:07.746,1.7676204677615273e+18,0.5545272216796875,-0.12095132190734145,0.484416127204895,-0.6139195561408997
2026-01-05 13:41:07.779,1.767620467791586e+18,0.5845859375,-0.12095132190734145,0.598647952079773,-0.6438519954681396
2026-01-05 13:41:07.812,1.7676204678316964e+18,0.6246962890625,-0.12095132190734145,0.7376197874546051,-0.6438519954681396
2026-01-05 13:41:07.845,1.7676204678718047e+18,0.6648046875,0.0146607663482427,1.19912850856781,-0.6438519954681396
2026-01-05 13:41:07.878,1.7676204678918587e+18,0.684858720363012,0.2070833146572113,1.19912850856781,-0.6438519954681396
2026-01-05 13:41:07.911,1.7676204679119127e+18,0.70491259765625,0.2070833146572113,1.19912850856781,-0.6438519954681396
2026-01-05 13:41:07.944,1.7676204679520018e+18,0.745001708984375,0.2070833146572113,1.0115928649902344,-0.3274237811565399
2026-01-05 13:41:07.977,1.767620467992096e+18,0.785095947265625,0.1178969889879226,0.5320636034011841,-0.3274237811565399
2026-01-05 13:41:08.010,1.7676204680321953e+18,0.8251953125,0.067195177078247,0.4554000496864319,-0.3274237811565399
2026-01-05 13:41:08.043,1.7676204680622797e+18,0.855279541015625,-0.11209377273917201,0.4554000496864319,-0.3933972120285034
2026-01-05 13:41:08.076,1.7676204680873275e+18,0.880327392578125,-0.35140023939311504,0.4746423065662384,-0.3933972120285034
2026-01-05 13:41:08.109,1.7676204681123753e+18,0.905375244140625,-0.5907067060470581,0.4746423065662384,-0.3933972120285034
2026-01-05 13:41:08.142,1.7676204681624914e+18,0.955491455078125,-0.7899505794048309,0.9196576476097107,-0.230907067656517
2026-01-05 13:41:08.175,1.7676204681925414e+18,0.98554150390625,-0.7899505794048309,1.1272499958674114,-0.230907067656517
2026-01-05 13:41:08.208,1.7676204682226176e+18,1.0156177978515624,-0.7899505794048309,1.1272499958674114,-0.07269296608865254
2026-01-05 13:41:08.241,1.767620468272703e+18,1.065702880859375,-0.7232644557952881,1.1272499958674114,0.0403171069920063
2026-01-05 13:41:08.274,1.7676204682927892e+18,1.085789306640625,-0.5369510352380348,0.442266434431076,-0.230907067656517
2026-01-05 13:41:08.307,1.7676204683127944e+18,1.10579443359375,-0.35063616933750386,0.051312681287527,-0.2608394622802734
2026-01-05 13:41:08.340,1.7676204683528812e+18,1.145881103515625,-0.1643227487802505,-0.0983493030071258,-0.1997529417276382
2026-01-05 13:41:08.373,1.7676204683929718e+18,1.1859716796875,-0.1643227487802505,-0.0983493030071258,-0.2608394622802734
2026-01-05 13:41:08.406,1.7676204684330675e+18,1.226067626953125,-0.1643227487802505,-0.2516764849424362,-0.2693915665149688
2026-01-05 13:41:08.439,1.76762046845312e+18,1.2461202392578126,-0.173485729843378,-0.2626720666885376,-0.2693915665149688
2026-01-05 13:41:08.472,1.7676204684731727e+18,1.2661728515625,-0.2247984111309051,-0.2516764849424362,-0.2663372457027435
2026-01-05 13:41:08.505,1.7676204685132575e+18,1.306257568359375,-0.4706716686487198,-0.2516764849424362,-0.2663372457027435
2026-01-05 13:41:08.538,1.7676204685533445e+18,1.346344482421875,-0.7165449261665344,0.0238237436860799,-0.2663372457027435
2026-01-05 13:41:08.571,1.7676204685934351e+18,1.38643505859375,-0.7586946487426758,0.0238237436860799,-0.2663372457027435
2026-01-05 13:41:08.604,1.7676204686335255e+18,1.426525390625,-0.7694284115773646,0.0238237436860799,-0.4532620012760162
2026-01-05 13:41:08.637,1.767620468653588e+18,1.4465878128069691,-0.7747952929947091,-0.13561024137435557,-0.4532620012760162
2026-01-05 13:41:08.670,1.7676204686736504e+18,1.466650390625,-0.7801621744120535,-0.607200026512146,-0.4532620012760162
2026-01-05 13:41:08.703,1.7676204687137334e+18,1.5067333984375,-0.7855290974634679,-0.7812966704368591,-0.3512475192546844
2026-01-05 13:41:08.736,1.7676204687538499e+18,1.546849853515625,-0.81236354618426,-0.9193521738052368,-0.3512475192546844
2026-01-05 13:41:08.769,1.767620468793933e+18,1.58693310546875,-0.6372844133749073,-0.9193521738052368,-0.3512475192546844
2026-01-05 13:41:08.802,1.7676204688340416e+18,1.62704150390625,-0.44073775489617684,-0.7812966704368591,-0.3512475192546844
2026-01-05 13:41:08.835,1.7676204688540808e+18,1.647080644133372,-0.32727029214049025,-0.4276056587696075,-0.3512475192546844
2026-01-05 13:41:08.868,1.7676204688741197e+18,1.66711962890625,-0.2138028293848037,-0.4276056587696075,-0.2559525370597839
2026-01-05 13:41:08.901,1.7676204689142116e+18,1.707211669921875,-0.1466076523065567,-0.3378084897994995,-0.0366519130766391
2026-01-05 13:41:08.934,1.7676204689542917e+18,1.747291748046875,-0.1466076523065567,-0.4276056587696075,-0.0213802829384803
2026-01-05 13:41:08.967,1.7676204689943793e+18,1.787379150390625,-0.18661933392286295,-0.5656611919403076,-0.0213802829384803
2026-01-05 13:41:09.000,1.7676204690144302e+18,1.8074302978515624,-0.18661933392286295,-0.8387179970741272,0.09254608862102037
2026-01-05 13:41:09.033,1.7676204690344814e+18,1.8274814453125,-0.18661933392286295,-0.8387179970741272,0.2003637999296188
2026-01-05 13:41:09.066,1.7676204690745956e+18,1.867595703125,-0.18661933392286295,-0.8387179970741272,0.2003637999296188
2026-01-05 13:41:09.099,1.7676204691146634e+18,1.907663330078125,-0.17981252900253203,-0.7299839854240417,0.2003637999296188
2026-01-05 13:41:09.132,1.7676204691547402e+18,1.947740234375,-0.16013383233490408,-0.7299839854240417,-0.020463525978406796
2026-01-05 13:41:09.165,1.767620469194822e+18,1.98782177734375,-0.1404552883253682,-0.7299839854240417,-0.020463525978406796
2026-01-05 13:41:09.198,1.7676204692149082e+18,2.007908036894262,-0.04206241561959659,-0.7299839854240417,-0.020463525978406796
2026-01-05 13:41:09.231,1.7676204692349942e+18,2.027994140625,0.1912008244544267,-0.7299839854240417,0.0977384373545646
2026-01-05 13:41:09.264,1.7676204692750702e+18,2.0680703125,0.3457497358322143,-0.6352998614311218,1.0812314748764038
2026-01-05 13:41:09.297,1.7676204693151508e+18,2.10815087890625,0.1912008244544267,-0.6352998614311218,1.7482963800430298
2026-01-05 13:41:09.330,1.7676204693552348e+18,2.14823486328125,0.0366519130766391,-0.6352998614311218,1.7482963800430298
2026-01-05 13:41:09.363,1.7676204693953318e+18,2.188331787109375,-0.0525344125926494,-0.6505714654922485,1.7482963800430298
2026-01-05 13:41:09.396,1.7676204694153692e+18,2.2083692626953124,-0.0525344125926494,-0.6505714654922485,1.3460415601730347
2026-01-05 13:41:09.429,1.7676204694354068e+18,2.22840673828125,-0.0525344125926494,-0.6505714654922485,0.817948579788208
2026-01-05 13:41:09.462,1.7676204694754819e+18,2.26848193359375,0.0623082555830478,-0.3402519524097442,0.0592539273202419
2026-01-05 13:41:09.495,1.7676204695155807e+18,2.30858056640625,0.2864958047866821,-0.08613200113177294,-0.6004805564880371
2026-01-05 13:41:09.528,1.7676204695556777e+18,2.348677734375,0.4685336351394653,-0.08613200113177294,-0.952338933944702
2026-01-05 13:41:09.561,1.7676204695757146e+18,2.368714599609375,0.4685336351394653,-0.0433714315295219,-0.9593638777732848
2026-01-05 13:41:09.594,1.7676204695957514e+18,2.38875146484375,0.4685336351394653,-0.0433714315295219,-0.9593638777732848
2026-01-05 13:41:09.627,1.7676204696358697e+18,2.42886962890625,0.1789835095405578,0.0757472887635231,-0.9593638777732848
2026-01-05 13:41:09.660,1.7676204696759542e+18,2.4689541015625,0.1789835095405578,0.2119702398777008,-0.9370672702789308
2026-01-05 13:41:09.693,1.7676204697160635e+18,2.5090634765625,0.1789835095405578,0.2690861448645592,-0.4569272100925445
2026-01-05 13:41:09.726,1.7676204697561723e+18,2.54917236328125,0.171042263507843,0.2394591718912124,-0.394008070230484
2026-01-05 13:41:09.759,1.767620469776227e+18,2.56922705078125,0.171042263507843,0.2394591718912124,-0.394008070230484
2026-01-05 13:41:09.792,1.7676204697962819e+18,2.58928173828125,0.171042263507843,0.2394591718912124,-0.394008070230484
2026-01-05 13:41:09.825,1.7676204698464364e+18,2.6394364013671874,0.1539380401372909,-0.05803219601511955,-0.4465425014495849
2026-01-05 13:41:09.858,1.7676204698765015e+18,2.66950146484375,0.1539380401372909,-0.3274237811565399,-0.4465425014495849
2026-01-05 13:41:09.891,1.7676204699166054e+18,2.70960546875,0.11820298878163144,-0.3274237811565399,-0.4465425014495849
2026-01-05 13:41:09.924,1.7676204699567135e+18,2.74971337890625,0.11820298878163144,-0.3274237811565399,0.1020144969224929
2026-01-05 13:41:09.957,1.7676204699767544e+18,2.769754438866391,0.11820298878163144,-0.3203989491903852,0.4862472487035091
2026-01-05 13:41:09.990,1.7676204699967956e+18,2.789795654296875,-0.0274889357388019,-0.2877175211906433,0.4862472487035091
2026-01-05 13:41:10.023,1.7676204700368835e+18,2.829883544921875,-0.0274889357388019,0.0262672062963247,0.4862472487035091
2026-01-05 13:41:10.056,1.7676204700769697e+18,2.8699697265625,-0.0274889357388019,0.0262672062963247,0.2693915665149688
2026-01-05 13:41:10.089,1.7676204701170565e+18,2.910056396484375,0.1991420686244964,0.0262672062963247,-0.4056145250797272
2026-01-05 13:41:10.122,1.7676204701370952e+18,2.930095015047736,0.1991420686244964,-0.024434411746115704,-0.6181948135051246
2026-01-05 13:41:10.155,1.7676204701571338e+18,2.9501337890625,0.1991420686244964,-0.0751364231109619,-0.8307767510414124
2026-01-05 13:41:10.188,1.767620470197219e+18,2.990218994140625,0.0775798857212066,-0.107512280344963,-0.8307767510414124
2026-01-05 13:41:10.221,1.7676204702373248e+18,3.03032470703125,0.0507018156349659,-0.2241875380277633,-0.8307767510414124
2026-01-05 13:41:10.254,1.767620470277447e+18,3.070447021484375,0.0507018156349659,-0.3637702688574791,-0.7574729323387146
2026-01-05 13:41:10.287,1.7676204703175677e+18,3.110567626953125,0.0507018156349659,-0.3637702688574791,-0.261450320482254
2026-01-05 13:41:10.320,1.7676204703376266e+18,3.13062646484375,0.0507018156349659,-0.3637702688574791,0.013744473457336481
2026-01-05 13:41:10.353,1.7676204703576852e+18,3.150685302734375,0.0507018156349659,-0.1844813078641891,0.2889392673969269
2026-01-05 13:41:10.386,1.7676204703977864e+18,3.190786376953125,0.0189368221908807,0.0201585534960031,0.4208861589431762
2026-01-05 13:41:10.419,1.767620470437882e+18,3.230882080078125,-0.0183259565383195,0.1563815027475357,0.5546656250953674
2026-01-05 13:41:10.452,1.7676204704779722e+18,3.27097216796875,-0.1893682330846786,0.1600466966629028,0.6243042945861816
2026-01-05 13:41:10.485,1.7676204704980142e+18,3.2910140824177643,-0.1893682330846786,0.1600466966629028,0.6243042945861816
2026-01-05 13:41:10.518,1.7676204705180562e+18,3.31105615234375,-0.1893682330846786,0.17165318162981602,0.6243042945861816
2026-01-05 13:41:10.551,1.7676204705581542e+18,3.351154296875,-0.0592539273202419,0.17165318162981602,0.5143485069274902
2026-01-05 13:41:10.584,1.7676204705982577e+18,3.391257568359375,-0.0592539273202419,0.2315179258584976,0.4899139404296875
2026-01-05 13:41:10.617,1.7676204706383575e+18,3.431357421875,-0.0592539273202419,0.2315179258584976,0.4257730841636657
2026-01-05 13:41:10.650,1.7676204706784865e+18,3.471486572265625,-0.0293215326964855,0.2315179258584976,0.3677408695220947
2026-01-05 13:41:10.683,1.767620470698546e+18,3.4915458541724345,-0.0293215326964855,0.15729751334281597,0.3677408695220947
2026-01-05 13:41:10.716,1.767620470718605e+18,3.51160498046875,-0.0293215326964855,0.0830776765942573,0.3677408695220947
2026-01-05 13:41:10.749,1.7676204707587116e+18,3.551711669921875,0.2076941877603531,-0.3536909818649292,1.356731653213501
2026-01-05 13:41:10.782,1.7676204707988006e+18,3.591800537109375,0.2076941877603531,-0.7556403279304504,1.356731653213501
2026-01-05 13:41:10.815,1.767620470838921e+18,3.6319208984375,0.2076941877603531,-0.7556403279304504,1.356731653213501
2026-01-05 13:41:10.848,1.7676204708790054e+18,3.67200537109375,0.1685988008975982,-0.7556403279304504,0.9083566069602966
2026-01-05 13:41:10.881,1.7676204708990664e+18,3.6920662841796874,0.1685988008975982,-0.7550294399261475,0.3704897612333298
2026-01-05 13:41:10.914,1.7676204709191273e+18,3.712127197265625,0.1637118905782699,-0.6108652353286743,-0.167377084493637
2026-01-05 13:41:10.947,1.7676204709592243e+18,3.752224365234375,0.1637118905782699,-0.5745187699794769,-0.7257078886032104
2026-01-05 13:41:10.980,1.7676204709993295e+18,3.79232958984375,0.1637118905782699,-0.3933972120285034,-1.1459832191467283
2026-01-05 13:41:11.013,1.7676204710394289e+18,3.832428955078125,-0.0378736443817615,0.2907718420028686,-1.7232508659362793
2026-01-05 13:41:11.046,1.767620471059555e+18,3.85255517578125,-0.1026253625750541,0.5681046843528748,-1.8380935192108157
2026-01-05 13:41:11.079,1.767620471079563e+18,3.87256298828125,-0.1026253625750541,0.5681046843528748,-1.8380935192108157
2026-01-05 13:41:11.112,1.7676204711196467e+18,3.912646728515625,-0.1026253625750541,0.5681046843528748,-1.8380935192108157
2026-01-05 13:41:11.145,1.7676204711597673e+18,3.952767333984375,-0.0531452745199203,0.5931501388549805,-0.950506329536438
2026-01-05 13:41:11.178,1.7676204711898573e+18,3.9828572998046874,-0.032986722886562306,0.5677992403507233,-0.47219882905483246
2026-01-05 13:41:11.211,1.7676204712399626e+18,4.032962646484375,0.1178969889879226,0.5290092825889587,-0.2938261926174164
2026-01-05 13:41:11.244,1.7676204712600136e+18,4.053013671875,0.18539760261774058,0.4847215712070465,-0.2938261926174164
2026-01-05 13:41:11.277,1.7676204712800648e+18,4.073064697265625,0.18539760261774058,0.3762930035591125,-0.20525072887539858
2026-01-05 13:41:11.310,1.7676204713201807e+18,4.1131806640625,0.18539760261774058,0.2235766798257827,-0.20525072887539858
2026-01-05 13:41:11.343,1.7676204713602831e+18,4.153283203125,0.1789835095405578,0.2235766798257827,0.4086688458919525
2026-01-05 13:41:11.376,1.7676204714003702e+18,4.1933701171875,0.0818559452891349,0.2235766798257827,0.7849618196487427
2026-01-05 13:41:11.409,1.7676204714404618e+18,4.2334619140625,0.0708603709936142,0.4886921942234039,0.7849618196487427
2026-01-05 13:41:11.442,1.7676204714605476e+18,4.253547607421875,0.0146607663482427,0.4886921942234039,0.7849618196487427
2026-01-05 13:41:11.475,1.767620471480549e+18,4.273549072265625,0.0146607663482427,0.4886921942234039,0.4074471294879913
2026-01-05 13:41:11.508,1.7676204715206354e+18,4.313635498046875,-0.0213802829384803,0.0311541277915239,-0.3219259977340698
2026-01-05 13:41:11.541,1.7676204715607235e+18,4.353723388671875,-0.0641408488154411,0.0030543261673301,-0.8717046976089478
2026-01-05 13:41:11.574,1.767620471600809e+18,4.39380908203125,-0.0641408488154411,-0.047036625444889,-0.8717046976089478
2026-01-05 13:41:11.607,1.7676204716208584e+18,4.413858520507812,-0.0641408488154411,-0.08704829588532445,-0.8717046976089478
2026-01-05 13:41:11.640,1.767620471640908e+18,4.433907958984375,-0.0736092627048492,-0.08704829588532445,-0.8497135639190674
2026-01-05 13:41:11.673,1.767620471681013e+18,4.474012939453125,-0.0830776765942573,-0.08704829588532445,-0.5106833577156067
2026-01-05 13:41:11.706,1.7676204717211208e+18,4.514120849609375,-0.1056796908378601,-0.0189368221908807,0.2021963894367218
2026-01-05 13:41:11.739,1.7676204717612175e+18,4.554217529296875,-0.10690200332011596,0.20402983680784867,0.6163630485534668
2026-01-05 13:41:11.772,1.7676204718013417e+18,4.594341796875,-0.10690200332011596,0.20402983680784867,0.6725624109986227
2026-01-05 13:41:11.805,1.7676204718213834e+18,4.614383345114497,-0.10690200332011596,0.20402983680784867,0.7287622094154358
2026-01-05 13:41:11.838,1.7676204718414252e+18,4.634425048828125,-0.0983493030071258,0.20402983680784867,0.6725624109986227
2026-01-05 13:41:11.871,1.7676204718815163e+18,4.674516357421875,-0.0983493030071258,0.20402983680784867,0.7287622094154358
2026-01-05 13:41:11.904,1.767620471921629e+18,4.71462890625,-0.0207694191485643,0.0238237436860799,0.7800748944282532
2026-01-05 13:41:11.937,1.7676204719617326e+18,4.754732666015625,-0.0207694191485643,0.0238237436860799,0.8356636762619019
2026-01-05 13:41:11.970,1.7676204720018337e+18,4.794833740234375,0.1453859210014343,0.0238237436860799,1.5515977144241333
2026-01-05 13:41:12.003,1.7676204720218995e+18,4.814899491892842,0.2400704122532744,-0.29840892090666826,1.8753563165664675
2026-01-05 13:41:12.036,1.767620472041965e+18,4.834965087890625,0.2400704122532744,-0.29840892090666826,1.8753563165664675
2026-01-05 13:41:12.069,1.767620472082059e+18,4.87505908203125,0.2400704122532744,-0.29840892090666826,1.8753563165664675
2026-01-05 13:41:12.102,1.7676204721221532e+18,4.9151533203125,0.1857030354440212,-0.30253100953996176,0.6481280326843262
2026-01-05 13:41:12.135,1.7676204721522465e+18,4.94524658203125,0.04673119075596335,-0.30253100953996176,0.1389718409627676
2026-01-05 13:41:12.168,1.767620472177311e+18,4.97031103515625,-0.0397062413394451,-0.30253100953996176,-0.3000875534489751
2026-01-05 13:41:12.201,1.7676204722023754e+18,4.99537548828125,-0.0922406539320945,-0.30253100953996176,-0.7391469478607178
2026-01-05 13:41:12.234,1.7676204722525325e+18,5.045532470703125,-0.261450320482254,-0.30253100953996176,-1.1749992966651917
2026-01-05 13:41:12.267,1.7676204722826017e+18,5.075601806640625,-0.261450320482254,0.0763581544160842,-1.6273449659347534
2026-01-05 13:41:12.300,1.7676204723226924e+18,5.1156923828125,-0.261450320482254,0.30909737831959794,-1.8530586514988228
2026-01-05 13:41:12.333,1.767620472362811e+18,5.155810791015625,-0.1631010174751281,0.30909737831959794,-1.8530586514988228
2026-01-05 13:41:12.366,1.767620472382857e+18,5.175857011348334,-0.020768865212904275,0.30909737831959794,-1.8530586514988228
2026-01-05 13:41:12.399,1.767620472402903e+18,5.195903076171875,0.0812450796365737,0.30909737831959794,-1.5650367736816406
2026-01-05 13:41:12.432,1.767620472442998e+18,5.235998046875,0.1215621829032898,0.30909737831959794,-0.8148942589759827
2026-01-05 13:41:12.465,1.7676204724830835e+18,5.27608349609375,0.1215621829032898,0.3769038617610931,-0.2034181207418441
2026-01-05 13:41:12.498,1.7676204725231918e+18,5.31619189453125,0.171042263507843,0.3769038617610931,-0.1771509200334549
2026-01-05 13:41:12.531,1.767620472563286e+18,5.3562861328125,0.2015855312347412,0.3769038617610931,-0.0482583530247211
2026-01-05 13:41:12.564,1.7676204725833405e+18,5.376340576171875,0.2015855312347412,-0.032070428133010864,-0.033292151987552615
2026-01-05 13:41:12.597,1.767620472603395e+18,5.39639501953125,0.22143865376710892,-0.1001818999648094,-0.0305432621389627
2026-01-05 13:41:12.630,1.767620472643491e+18,5.436490966796875,0.22143865376710892,-0.1166752651333808,0.1368338167667389
2026-01-05 13:41:12.663,1.7676204726835988e+18,5.476598876953125,0.0482583530247211,-0.1166752651333808,0.5155702829360962
2026-01-05 13:41:12.696,1.7676204727236805e+18,5.516680419921875,-0.1802052408456802,-0.1001818999648094,0.5155702829360962
2026-01-05 13:41:12.729,1.7676204727437192e+18,5.5367191162109375,-0.1802052408456802,-0.1166752651333808,0.5155702829360962
2026-01-05 13:41:12.762,1.7676204727637578e+18,5.5567578125,-0.1802052408456802,-0.1166752651333808,-0.1795943826436996
2026-01-05 13:41:12.795,1.7676204728038326e+18,5.59683251953125,-0.157603234052658,-0.128892570734024,-0.2663372457027435
2026-01-05 13:41:12.828,1.767620472843944e+18,5.63694384765625,-0.1062905490398407,-0.128892570734024,-0.7263187766075134
2026-01-05 13:41:12.861,1.7676204728840287e+18,5.677028564453125,-0.0580321997404098,-0.128892570734024,-0.7263187766075134
2026-01-05 13:41:12.894,1.767620472924116e+18,5.717115966796875,-0.0274889357388019,-0.128892570734024,-0.7263187766075134
2026-01-05 13:41:12.927,1.7676204729441556e+18,5.737155517578126,-0.006719517521560199,-0.128892570734024,-0.5519167482852936
2026-01-05 13:41:12.960,1.767620472964195e+18,5.757195068359375,-0.006719517521560199,-0.1007927637547254,-0.3775147199630737
2026-01-05 13:41:12.993,1.7676204730043085e+18,5.79730859375,-0.006719517521560199,-0.1007927637547254,0.1679879426956176
2026-01-05 13:41:13.026,1.767620473044389e+18,5.83738916015625,0.0140499006956815,-0.1423316001892089,0.5864306092262268
2026-01-05 13:41:13.059,1.7676204730845023e+18,5.877502197265625,0.0189368221908807,-0.07666463435131071,0.649961347231557
2026-01-05 13:41:13.092,1.767620473124579e+18,5.9175791015625,-0.0238237436860799,0.1942551434040069,0.649961347231557
2026-01-05 13:41:13.125,1.7676204731446157e+18,5.937615767008436,0.07696941567826852,0.1942551434040069,0.788016140460968
2026-01-05 13:41:13.158,1.7676204731646525e+18,5.957652587890625,0.1777617931365966,0.1942551434040069,0.788016140460968
2026-01-05 13:41:13.191,1.7676204732047355e+18,5.997735595703125,0.2113593816757202,0.1942551434040069,0.788016140460968
2026-01-05 13:41:13.224,1.7676204732348142e+18,6.027814208984375,0.23457233705072497,0.1942551434040069,1.501506745815277
2026-01-05 13:41:13.257,1.767620473284881e+18,6.077880859375,0.23457233705072497,-0.4538728892803192,2.191173553466797
2026-01-05 13:41:13.290,1.7676204733049147e+18,6.097914717214639,0.23457233705072497,-0.526870995737307,2.191173553466797
2026-01-05 13:41:13.323,1.7676204733249487e+18,6.11794873046875,0.2131919711828231,-0.526870995737307,2.191173553466797
2026-01-05 13:41:13.356,1.7676204733650166e+18,6.1580166015625,0.0256563406437635,-0.526870995737307,0.9059131741523744
2026-01-05 13:41:13.389,1.767620473405086e+18,6.1980859375,-0.0317649915814399,-0.2913827300071716,-0.3543018400669098
2026-01-05 13:41:13.422,1.7676204734451525e+18,6.238152587890625,-0.0855211317539215,-0.2510656118392944,-0.9718865752220154
2026-01-05 13:41:13.455,1.7676204734852447e+18,6.27824462890625,-0.0855211317539215,-0.1795943826436996,-1.4269812107086182
2026-01-05 13:41:13.488,1.767620473505279e+18,6.29827880859375,-0.21288654208183283,-0.046120330691337585,-1.7461583614349365
2026-01-05 13:41:13.521,1.767620473525313e+18,6.31831298828125,-0.21288654208183283,0.1991420686244964,-2.0616703033447266
2026-01-05 13:41:13.554,1.7676204735653814e+18,6.35838134765625,-0.3280346393585205,0.1991420686244964,-2.0616703033447266
2026-01-05 13:41:13.587,1.7676204736054556e+18,6.39845556640625,-0.3280346393585205,0.4410447180271148,-2.0616703033447266
2026-01-05 13:41:13.620,1.7676204736455624e+18,6.438562255859375,-0.2070833146572113,0.6725626587867737,-0.8503243923187256
2026-01-05 13:41:13.653,1.767620473685646e+18,6.47864599609375,-0.0073303831741213,0.6792821288108826,0.2370157092809677
2026-01-05 13:41:13.686,1.7676204737057344e+18,6.498734375,0.2162462919950485,0.6792821288108826,0.3005456924438476
2026-01-05 13:41:13.719,1.7676204737257428e+18,6.518742919921875,0.2162462919950485,0.6792821288108826,0.3164281845092773
2026-01-05 13:41:13.752,1.7676204737658383e+18,6.55883837890625,0.2162462919950485,0.4880813360214233,0.371406078338623
2026-01-05 13:41:13.785,1.7676204738059208e+18,6.598920654296875,0.1123992055654525,-0.2052507251501083,0.4392121136188507
2026-01-05 13:41:13.818,1.7676204738460099e+18,6.639009765625,0.02626687034656551,-0.2052507251501083,0.5568036809563637
2026-01-05 13:41:13.851,1.7676204738710753e+18,6.664075231500403,-0.0598647966980934,0.32436943054199213,0.5568036809563637
2026-01-05 13:41:13.884,1.7676204738961405e+18,6.689140502929687,0.02626687034656551,-0.2675589919090271,0.5568036809563637
2026-01-05 13:41:13.917,1.7676204739261888e+18,6.719188720703125,-0.0421497002243995,-0.2675589919090271,-0.5473352670669556
2026-01-05 13:41:13.950,1.7676204739663752e+18,6.759375244140625,-0.0421497002243995,-0.2675589919090271,-0.7269296646118164
2026-01-05 13:41:13.983,1.76762047400647e+18,6.799469970703125,0.013744468800723525,-0.3005456924438476,-0.8130616471171379
2026-01-05 13:41:14.016,1.7676204740465697e+18,6.83956982421875,0.013744468800723525,-0.3967569768428802,-0.8130616471171379
2026-01-05 13:41:14.049,1.7676204740716498e+18,6.864649841308594,-0.00733038224279885,-0.40179660916328425,-0.8130616471171379
2026-01-05 13:41:14.082,1.7676204740967299e+18,6.889729858398438,-0.00733038224279885,-0.40179660916328425,-0.638965055346489
2026-01-05 13:41:14.115,1.767620474126805e+18,6.919804931640625,-0.1160643994808197,-0.3967569768428802,-0.0494800843298435
2026-01-05 13:41:14.148,1.767620474166895e+18,6.95989501953125,-0.1875356286764145,0.0690277740359306,0.5503895878791809
2026-01-05 13:41:14.181,1.7676204742070182e+18,7.000018310546875,-0.1875356286764145,0.0879646678159329,0.5772676467895508
2026-01-05 13:41:14.214,1.7676204742270653e+18,7.020065385375086,-0.1875356286764145,0.0879646678159329,0.5772676467895508
2026-01-05 13:41:14.247,1.7676204742471122e+18,7.0401123046875,-0.0690277740359306,0.0690277740359306,0.6695087702075783
2026-01-05 13:41:14.280,1.7676204742872323e+18,7.080232177734375,-0.0342084541916847,0.0317649915814399,0.6921103000640869
2026-01-05 13:41:14.313,1.767620474327319e+18,7.120319091796875,0.209526777267456,0.0195476878434419,0.788627028465271
2026-01-05 13:41:14.346,1.7676204743674058e+18,7.16040576171875,0.41111230850219727,-0.0030543261673301,1.6450600624084473
2026-01-05 13:41:14.379,1.7676204744075005e+18,7.20050048828125,0.41111230850219727,-0.0433714315295219,1.872912883758545
2026-01-05 13:41:14.412,1.7676204744275494e+18,7.220549438476563,0.41111230850219727,-0.2981022261083126,1.872912883758545
2026-01-05 13:41:14.445,1.7676204744475983e+18,7.240598388671875,0.3701843321323395,-0.3200933933258056,1.872912883758545
2026-01-05 13:41:14.478,1.7676204744876897e+18,7.280689697265625,0.2284636050462722,-0.3200933933258056,0.7434229850769043
2026-01-05 13:41:14.511,1.7676204745277727e+18,7.320772705078125,0.1899790912866592,-0.3200933933258056,-0.2535090744495392
2026-01-05 13:41:14.544,1.76762047456787e+18,7.360869873046875,0.0189368221908807,-0.3200933933258056,-0.7825183868408203
2026-01-05 13:41:14.577,1.7676204746079839e+18,7.40098388671875,-0.1246165111660957,-0.1759291887283325,-1.295645236968994
2026-01-05 13:41:14.610,1.767620474633052e+18,7.4260519047194125,-0.24358205174036363,0.07269199987528444,-1.6610939334800352
2026-01-05 13:41:14.643,1.7676204746581202e+18,7.4511201171875,-0.24358205174036363,0.07269199987528444,-2.026545464992523
2026-01-05 13:41:14.676,1.7676204746881802e+18,7.48118017578125,-0.24358205174036363,0.07269199987528444,-2.026545464992523
2026-01-05 13:41:14.709,1.7676204747282644e+18,7.521264404296875,-0.1661553531885147,-0.0598647929728031,-2.026545464992523
2026-01-05 13:41:14.742,1.7676204747683763e+18,7.561376220703125,-0.1014036312699318,-0.1716531366109848,-1.3005321025848389
2026-01-05 13:41:14.775,1.7676204747884572e+18,7.581457275390625,-0.070249505341053,-0.1716531366109848,-0.5564982295036316
2026-01-05 13:41:14.808,1.7676204748084657e+18,7.601465576171875,0.0555887371301651,-0.1716531366109848,0.0452040284872055
2026-01-05 13:41:14.841,1.7676204748485632e+18,7.641563232421875,0.0555887371301651,0.0592539273202419,0.3488040566444397
2026-01-05 13:41:14.874,1.7676204748886456e+18,7.681645751953125,0.1282816976308822,0.5161811113357544,0.7773260176181793
2026-01-05 13:41:14.907,1.7676204749187635e+18,7.711763427734375,0.1282816976308822,0.7064656615257263,0.7956539559917704
2026-01-05 13:41:14.940,1.7676204749688486e+18,7.7618486328125,0.12614367986514183,0.8784242272377014,0.7956539559917704
2026-01-05 13:41:14.973,1.7676204749889116e+18,7.781911543273825,0.1240056455135345,0.8784242272377014,0.7773260176181793
2026-01-05 13:41:15.006,1.7676204750089746e+18,7.801974609375,0.1240056455135345,0.8784242272377014,0.280387133359909
2026-01-05 13:41:15.039,1.7676204750591268e+18,7.852126708984375,0.08735373616218564,0.07422012835741035,-0.6307183504104614
2026-01-05 13:41:15.072,1.7676204750891886e+18,7.882188720703125,0.0109955742955207,-0.2883284091949463,-0.9737191796302797
2026-01-05 13:41:15.105,1.7676204751292744e+18,7.9222744140625,0.0036651915870606,-0.2883284091949463,-0.9737191796302797
2026-01-05 13:41:15.138,1.767620475169374e+18,7.9623740234375,-0.0213802829384803,-0.2883284091949463,-0.9737191796302797
2026-01-05 13:41:15.171,1.7676204751894633e+18,7.98246337890625,-0.051312681287527,-0.3506366610527038,-0.8558222055435181
2026-01-05 13:41:15.204,1.7676204752094597e+18,8.002459716796874,-0.051312681287527,-0.2785545587539673,-0.5998696684837341
2026-01-05 13:41:15.237,1.7676204752495706e+18,8.042570556640625,-0.1484402567148208,-0.2339613884687423,0.2125810980796814
2026-01-05 13:41:15.270,1.7676204752896714e+18,8.08267138671875,-0.1484402567148208,0.30115656554698944,0.6261368989944458
2026-01-05 13:41:15.303,1.767620475329756e+18,8.122755859375,-0.1484402567148208,0.30115656554698944,0.6820310652256012
2026-01-05 13:41:15.336,1.767620475349802e+18,8.142802124023437,-0.08888089470565315,0.30115656554698944,0.7379252314567566
2026-01-05 13:41:15.369,1.7676204753698483e+18,8.162848388671875,-0.0806342139840126,0.2394591718912124,0.7379252314567566
2026-01-05 13:41:15.402,1.767620475409951e+18,8.202950927734374,-0.0293215326964855,0.1252273768186569,0.8313875794410706
2026-01-05 13:41:15.435,1.76762047545003e+18,8.243030029296875,0.1551597714424133,0.0439822971820831,0.9932668805122375
2026-01-05 13:41:15.468,1.7676204754901059e+18,8.28310595703125,0.4373795092105865,-0.3573561608791351,1.964540813365177
2026-01-05 13:41:15.501,1.7676204755301883e+18,8.323188232421876,0.4373795092105865,-0.37629298865795135,1.964540813365177
2026-01-05 13:41:15.534,1.767620475555248e+18,8.34824820511191,0.4373795092105865,-0.37629298865795135,1.964540813365177
2026-01-05 13:41:15.567,1.767620475580308e+18,8.373307983398437,0.3582724630832672,-0.3927863538265228,1.5045611262321472
2026-01-05 13:41:15.600,1.7676204756103493e+18,8.403349365234375,0.1753183305263519,-0.3927863538265228,0.7354817390441895
2026-01-05 13:41:15.633,1.7676204756504448e+18,8.44344482421875,-0.0354301854968071,-0.3927863538265228,-0.2748893499374389
2026-01-05 13:41:15.666,1.7676204756905446e+18,8.483544677734375,-0.0519235469400882,-0.3927863538265228,-0.7122688889503479
2026-01-05 13:41:15.699,1.7676204757306468e+18,8.523646728515626,-0.3054326176643371,-0.3927863538265228,-1.1759155988693235
2026-01-05 13:41:15.732,1.767620475750693e+18,8.543693115234376,-0.3484986275434494,-0.19333884865045547,-1.3839151859283445
2026-01-05 13:41:15.765,1.7676204757707395e+18,8.563739501953124,-0.3484986275434494,0.0995710343122482,-1.5919147729873655
2026-01-05 13:41:15.798,1.767620475820902e+18,8.613901977539062,-0.3484986275434494,0.303600013256073,-1.5919147729873655
2026-01-05 13:41:15.831,1.7676204758509466e+18,8.643946533203126,-0.2168571650981903,0.303600013256073,-1.5919147729873655
2026-01-05 13:41:15.864,1.7676204758910774e+18,8.684077392578125,-0.1392772793769836,0.303600013256073,-1.4373658895492554
2026-01-05 13:41:15.897,1.767620475911128e+18,8.7041279296875,-0.1252273768186569,0.303600013256073,-1.002735286951065
2026-01-05 13:41:15.930,1.7676204759311785e+18,8.724178466796875,-0.1111774742603302,0.303600013256073,-0.5681046843528748
2026-01-05 13:41:15.963,1.7676204759712742e+18,8.764274169921874,-0.0183259565383195,0.2419026270508766,-0.197920337319374
2026-01-05 13:41:15.996,1.767620476011373e+18,8.804373046875,-0.0183259565383195,0.3103195428848266,-0.1007927656173706
2026-01-05 13:41:16.029,1.7676204760514726e+18,8.84447265625,0.1313360333442688,0.5473352670669556,0.1282816976308822
2026-01-05 13:41:16.062,1.7676204760915656e+18,8.884565673828124,0.1411098688840866,0.3103195428848266,0.4495968222618103
2026-01-05 13:41:16.095,1.767620476111651e+18,8.904651123046875,0.1313360333442688,0.5473352670669556,0.7409795522689819
2026-01-05 13:41:16.128,1.767620476131657e+18,8.924656982421874,0.0757472887635231,0.6035348773002625,0.7409795522689819
2026-01-05 13:41:16.161,1.7676204761717412e+18,8.9647412109375,0.0757472887635231,0.5473352670669556,0.7409795522689819
2026-01-05 13:41:16.194,1.7676204762118548e+18,9.004854736328125,0.0305432621389627,0.213191956281662,-0.172264002263546
2026-01-05 13:41:16.227,1.7676204762419423e+18,9.034942260742188,-0.04428772628307345,0.213191956281662,-0.461814135313034
2026-01-05 13:41:16.260,1.7676204762920259e+18,9.08502587890625,-0.0830776765942573,-0.1233947798609733,-0.8497135639190674
2026-01-05 13:41:16.293,1.7676204763121083e+18,9.1051083984375,-0.1227839142084121,-0.2736676335334778,-0.8497135639190674
2026-01-05 13:41:16.326,1.767620476332151e+18,9.125151123046876,-0.1233947798609733,-0.2736676335334778,-0.8497135639190674
2026-01-05 13:41:16.359,1.7676204763722552e+18,9.165255126953124,-0.1325577646493911,-0.2736676335334778,-0.7623597979545593
2026-01-05 13:41:16.392,1.7676204764123612e+18,9.205361328125,-0.1398881375789642,-0.2028072625398636,-0.2645046412944793
2026-01-05 13:41:16.425,1.7676204764524861e+18,9.245486083984376,-0.1447750627994537,0.2364048510789871,0.4251621961593628
2026-01-05 13:41:16.458,1.767620476472538e+18,9.265538130230029,-0.1447750627994537,0.3194822054331844,0.5644389353103711
2026-01-05 13:41:16.491,1.7676204764925903e+18,9.28559033203125,-0.1398881375789642,0.3194822054331844,0.6035348773002625
2026-01-05 13:41:16.524,1.7676204765327132e+18,9.325713134765625,0.0006108652451075,0.3194822054331844,0.7037167549133301
2026-01-05 13:41:16.557,1.7676204765728174e+18,9.3658173828125,0.0006108652451075,0.342695415019989,0.9456194043159484
2026-01-05 13:41:16.590,1.7676204766129347e+18,9.4059345703125,0.0006108652451075,0.2773328125476837,0.9529497623443604
2026-01-05 13:41:16.623,1.7676204766530278e+18,9.44602783203125,-0.1973094791173935,0.2217440903186798,1.027475357055664
2026-01-05 13:41:16.656,1.7676204766730778e+18,9.466077880859375,-0.1973094791173935,0.13897185027599335,1.5253305435180664
2026-01-05 13:41:16.689,1.767620476693128e+18,9.4861279296875,-0.1973094791173935,-0.0647517144680023,2.0231857299804688
2026-01-05 13:41:16.722,1.767620476733218e+18,9.526218017578126,-0.22968532890081406,-0.0647517144680023,2.0231857299804688
2026-01-05 13:41:16.755,1.767620476773331e+18,9.5663310546875,-0.2620611786842346,-0.0647517144680023,2.0231857299804688
2026-01-05 13:41:16.788,1.7676204768134126e+18,9.60641259765625,-0.25289793394519183,0.2559525370597839,0.8759807348251343
2026-01-05 13:41:16.821,1.7676204768535452e+18,9.646545166015626,-0.25289793394519183,0.6285803318023682,-0.371406078338623
2026-01-05 13:41:16.854,1.7676204768735985e+18,9.666598466453921,-0.3237585723400116,0.707687071090831,-0.7116593207085185
2026-01-05 13:41:16.887,1.7676204768936517e+18,9.686651611328124,-0.3237585723400116,0.7220427393913269,-1.0519099235534668
2026-01-05 13:41:16.920,1.7676204769337388e+18,9.72673876953125,-0.504574716091156,0.7220427393913269,-1.816102385520935
2026-01-05 13:41:16.953,1.7676204769738248e+18,9.76682470703125,-0.6768379875486994,1.0574077367782593,-2.253481864929199
2026-01-05 13:41:16.986,1.767620477013939e+18,9.80693896484375,-0.6768379875486994,1.4184291362762451,-2.253481864929199
2026-01-05 13:41:17.019,1.767620477033984e+18,9.8269839644686,-0.6768379875486994,1.4184291362762451,-2.253481864929199
2026-01-05 13:41:17.052,1.7676204770540288e+18,9.84702880859375,-0.494189977645874,1.5329659310861592,-2.1954495906829834
2026-01-05 13:41:17.085,1.7676204770941601e+18,9.88716015625,-0.3194825351238251,1.5329659310861592,-1.7104226350784302
2026-01-05 13:41:17.118,1.7676204771342597e+18,9.927259765625,0.0445931628346443,1.4440854787826538,-1.0867292881011963
2026-01-05 13:41:17.151,1.7676204771743754e+18,9.96737548828125,0.0445931628346443,1.4440854787826538,-0.4508185386657715
2026-01-05 13:41:17.184,1.767620477214483e+18,10.00748291015625,0.0445931628346443,1.4440854787826538,-0.342695415019989
2026-01-05 13:41:17.217,1.767620477234542e+18,10.027542114257812,0.067195177078247,1.1078041195869446,-0.16249016113579276
2026-01-05 13:41:17.250,1.7676204772546012e+18,10.047601318359376,0.067195177078247,1.1010846197605133,0.0177150927484035
2026-01-05 13:41:17.283,1.7676204773047575e+18,10.097757446289062,-0.0238237436860799,0.7580837607383728,0.4208861440420151
2026-01-05 13:41:17.316,1.7676204773348214e+18,10.1278212890625,-0.0238237436860799,0.7580837607383728,0.5894849896430969
2026-01-05 13:41:17.349,1.7676204773749143e+18,10.167914306640624,-0.0238237436860799,0.9960182714532009,0.5894849896430969
2026-01-05 13:41:17.382,1.7676204773949622e+18,10.187962113893551,-0.0500909499824047,0.9960182714532009,0.5894849896430969
2026-01-05 13:41:17.415,1.7676204774150098e+18,10.208009765625,-0.0500909499824047,1.0207557678222656,0.2626720666885376
2026-01-05 13:41:17.448,1.7676204774551114e+18,10.248111328125,-0.27672293807629333,1.0207557678222656,-0.2461786866188049
2026-01-05 13:41:17.481,1.7676204774952113e+18,10.288211181640625,-0.1466076523065567,1.053742527961731,-0.5314527750015259
2026-01-05 13:41:17.514,1.7676204775353034e+18,10.328303466796877,-0.1466076523065567,1.0207557678222656,-0.5314527750015259
2026-01-05 13:41:17.547,1.7676204775754112e+18,10.3684111328125,-0.18936822563409805,0.9462302923202516,-0.5314527750015259
2026-01-05 13:41:17.580,1.7676204775954657e+18,10.388465576171875,-0.2321287989616394,0.9462302923202516,-0.5140431225299835
2026-01-05 13:41:17.613,1.76762047761552e+18,10.40852001953125,-0.2321287989616394,0.9193521738052368,-0.3347541689872741
2026-01-05 13:41:17.646,1.7676204776556334e+18,10.44863330078125,-0.2321287989616394,0.9089674949645996,0.0409279726445674
2026-01-05 13:41:17.679,1.7676204776957414e+18,10.488741455078124,-0.2779437005519867,0.7849618196487427,0.3139847218990326
2026-01-05 13:41:17.712,1.767620477735845e+18,10.52884521484375,-0.2779437005519867,0.7055491982015787,0.6548475623130798
2026-01-05 13:41:17.745,1.7676204777759483e+18,10.5689482421875,-0.2538146120434882,0.7055491982015787,0.6780604124069214
2026-01-05 13:41:17.778,1.7676204777960159e+18,10.589015913372547,-0.2538146120434882,0.7055491982015787,0.6780604124069214
2026-01-05 13:41:17.811,1.7676204778160837e+18,10.609083740234375,-0.2779437005519867,0.7470881938934326,0.6780604124069214
2026-01-05 13:41:17.844,1.76762047785618e+18,10.649179931640624,-0.2538146120434882,1.0225883722305298,0.6218608021736145
2026-01-05 13:41:17.877,1.767620477896278e+18,10.689278076171876,-0.2296853363513946,1.0225883722305298,0.6218608021736145
2026-01-05 13:41:17.910,1.767620477926365e+18,10.719364990234375,-0.20128010585904121,1.0225883722305298,0.6218608021736145
2026-01-05 13:41:17.943,1.767620477951411e+18,10.744411010742187,0.33124167285859585,1.0010554194450378,0.9182831570506096
2026-01-05 13:41:17.976,1.767620477976457e+18,10.76945703125,0.33124167285859585,1.0010554194450378,1.3347405195236206
2026-01-05 13:41:18.009,1.7676204780165432e+18,10.809543212890626,0.33124167285859585,0.685390830039978,1.348790407180786
2026-01-05 13:41:18.042,1.7676204780566659e+18,10.849665771484377,0.2492330223321914,0.5821545720100403,1.348790407180786
2026-01-05 13:41:18.075,1.7676204780967565e+18,10.889756591796877,-0.2046398520469665,0.0500909499824047,1.348790407180786
2026-01-05 13:41:18.108,1.7676204781368394e+18,10.92983935546875,-0.2875263051816767,-0.1014036312699318,0.9853256344795228
2026-01-05 13:41:18.141,1.7676204781568812e+18,10.949881147847925,-0.3289695317490319,-0.1014036312699318,0.7791594217030016
2026-01-05 13:41:18.174,1.7676204781769231e+18,10.969923095703123,-0.370412758316387,-0.1014036312699318,0.5729916095733643
2026-01-05 13:41:18.207,1.7676204782270433e+18,11.020043212890624,-0.4118563063833353,1.0790934562683105,-0.56566122174263
2026-01-05 13:41:18.240,1.767620478257087e+18,11.0500869140625,-0.45329985445028365,1.5106697082519531,-1.1753047704696655
2026-01-05 13:41:18.273,1.7676204782871675e+18,11.080167358398437,-0.8677327631230213,1.7660114765167236,-1.58733332157135
2026-01-05 13:41:18.306,1.7676204783372444e+18,11.130244384765623,-0.6986764668581416,1.7962492108345032,-1.9162843227386477
2026-01-05 13:41:18.339,1.7676204783573005e+18,11.150300492831997,-0.5296201705932617,1.9220881555480775,-1.9162843227386477
2026-01-05 13:41:18.372,1.7676204783773565e+18,11.1703564453125,-0.30665435642004013,1.9220881555480775,-1.9162843227386477
2026-01-05 13:41:18.405,1.7676204784174625e+18,11.210462646484377,-0.0836885422468185,1.9220881555480775,-1.6352862119674685
2026-01-05 13:41:18.438,1.7676204784575544e+18,11.250554443359375,0.0427605658769607,1.8136589527130127,-1.189354658126831
2026-01-05 13:41:18.471,1.7676204784976689e+18,11.2906689453125,0.0812450796365737,1.711033582687378,-0.7299839854240417
2026-01-05 13:41:18.504,1.767620478517722e+18,11.310722290039063,0.0916297882795333,1.4761558771133423,-0.4908302277326584
2026-01-05 13:41:18.537,1.7676204785377756e+18,11.330775634765626,0.14538592845201484,1.3041973114013672,-0.251676470041275
2026-01-05 13:41:18.570,1.7676204785778496e+18,11.370849609375,0.14538592845201484,1.138652801513672,0.1631010174751281
2026-01-05 13:41:18.603,1.7676204786179645e+18,11.410964599609375,0.0916297882795333,1.138652801513672,1.2651019096374512
2026-01-05 13:41:18.636,1.7676204786480456e+18,11.44104541015625,0.0916297882795333,1.3041973114013672,1.2651019096374512
2026-01-05 13:41:18.669,1.767620478698211e+18,11.491211181640624,-0.1563815027475357,1.5756248734886542,1.2651019096374512
2026-01-05 13:41:18.702,1.767620478718257e+18,11.511257035760975,-0.1563815027475357,1.5756248734886542,0.403472003403756
2026-01-05 13:41:18.735,1.7676204787383027e+18,11.531302734375,-0.3316991458020394,1.5756248734886542,-0.7269296646118164
2026-01-05 13:41:18.768,1.7676204787784202e+18,11.571420166015624,-0.2926044464111328,1.5027284622192385,-0.7574729323387146
2026-01-05 13:41:18.801,1.767620478818502e+18,11.611501953125,-0.2217440903186798,1.3310753107070925,-0.7574729323387146
2026-01-05 13:41:18.834,1.7676204788586266e+18,11.65162646484375,-0.2590068578720093,1.32863187789917,-0.7269296646118164
2026-01-05 13:41:18.867,1.7676204788987238e+18,11.691723876953125,-0.2651155292987823,1.2785409688949585,-0.5510004758834839
2026-01-05 13:41:18.900,1.767620478918823e+18,11.711822998046877,-0.2651155292987823,1.2785409688949585,-0.3439171314239502
2026-01-05 13:41:18.933,1.767620478938829e+18,11.7318291015625,-0.2651155292987823,1.256549835205078,-0.1569923609495163
2026-01-05 13:41:18.966,1.7676204789789315e+18,11.771931396484376,-0.2651155292987823,1.1679743528366089,0.2968805134296417
2026-01-05 13:41:18.999,1.767620479019041e+18,11.812041015625,-0.2651155292987823,1.0409144163131714,0.6224716901779175
2026-01-05 13:41:19.032,1.7676204790591352e+18,11.85213525390625,-0.1820378452539444,0.9764680862426758,0.7147123217582703
2026-01-05 13:41:19.065,1.7676204790791867e+18,11.872186645507814,-0.1820378452539444,0.9520334601402283,0.7147123217582703
2026-01-05 13:41:19.098,1.7676204790992381e+18,11.892238037109376,-0.1820378452539444,0.9764680862426758,0.7202101349830627
2026-01-05 13:41:19.131,1.7676204791493857e+18,11.942385864257812,-0.19792033731937403,0.9764680862426758,0.7709119319915771
2026-01-05 13:41:19.164,1.7676204791794406e+18,11.972440673828125,-0.19792033731937403,0.9520334601402283,0.817948579788208
2026-01-05 13:41:19.197,1.7676204792195272e+18,12.012527099609375,-0.19792033731937403,0.9520334601402283,1.5968017578125
2026-01-05 13:41:19.230,1.7676204792496123e+18,12.042612182617187,0.10445795487612484,0.6111706793308258,2.1759018898010254
2026-01-05 13:41:19.263,1.7676204792746565e+18,12.06765643310547,0.10445795487612484,0.392939068377018,2.1759018898010254
2026-01-05 13:41:19.296,1.7676204792997007e+18,12.09270068359375,0.10445795487612484,0.392939068377018,2.1759018898010254
2026-01-05 13:41:19.329,1.767620479339789e+18,12.1327890625,0.1111774742603302,0.23273965716362,1.1117748022079468
2026-01-05 13:41:19.362,1.7676204793798856e+18,12.172885498046876,0.0781907513737678,0.1747074574232101,0.4379903674125671
2026-01-05 13:41:19.395,1.767620479419997e+18,12.212996826171874,-0.0842994004487991,-0.1081231459975242,-0.0378736443817615
2026-01-05 13:41:19.428,1.7676204794600975e+18,12.25309765625,-0.2748893499374389,-0.1417207419872284,-0.3732386529445648
2026-01-05 13:41:19.461,1.7676204794801444e+18,12.273144331422737,-0.5488613647916769,-0.1417207419872284,-0.5595518425462751
2026-01-05 13:41:19.494,1.7676204795001912e+18,12.293191162109377,-0.5797111392021179,-0.1417207419872284,-0.7458664774894714
2026-01-05 13:41:19.527,1.7676204795402819e+18,12.33328173828125,-0.5797111392021179,-0.1398881478235125,-1.389107584953308
2026-01-05 13:41:19.560,1.7676204795804068e+18,12.37340673828125,-0.5797111392021179,-0.1398881478235125,-1.389107584953308
2026-01-05 13:41:19.593,1.7676204796104986e+18,12.403498657226562,-0.5729916095733643,-0.1398881478235125,-1.389107584953308
2026-01-05 13:41:19.626,1.7676204796355538e+18,12.428553796859209,-0.4645634475949251,-0.5155688159687611,-1.3640632294890156
2026-01-05 13:41:19.659,1.767620479660609e+18,12.453609130859377,-0.3561344444751739,-0.7580837607383728,-1.065348982810974
2026-01-05 13:41:19.692,1.7676204797006935e+18,12.493693603515624,-0.0763581544160842,-0.7580837607383728,-0.0287106670439243
2026-01-05 13:41:19.725,1.7676204797408084e+18,12.533808349609377,-0.0531452745199203,-0.7580837607383728,0.3781255781650543
2026-01-05 13:41:19.758,1.7676204797808835e+18,12.573883544921877,-0.0531452745199203,-0.3292563557624817,0.4691445231437683
2026-01-05 13:41:19.791,1.7676204798209697e+18,12.6139697265625,-0.0531452745199203,-0.0897971913218498,1.72935950756073
2026-01-05 13:41:19.824,1.767620479841007e+18,12.634007202148437,-0.0421497002243995,0.7089091278612614,1.72935950756073
2026-01-05 13:41:19.857,1.7676204798610447e+18,12.654044677734374,-0.21532999351620669,1.319468975067139,1.72935950756073
2026-01-05 13:41:19.890,1.767620479901134e+18,12.694134033203126,-0.21532999351620669,1.319468975067139,0.1905899494886398
2026-01-05 13:41:19.923,1.7676204799412419e+18,12.734241943359375,0.0543670058250427,1.319468975067139,0.0079412478953599
2026-01-05 13:41:19.956,1.7676204799713326e+18,12.764332641601563,0.0543670058250427,0.16462817788124084,-0.7107417285442352
2026-01-05 13:41:19.989,1.7676204800214154e+18,12.81441552734375,-0.1270606700411356,-0.7544185519218445,-1.168585181236267
2026-01-05 13:41:20.022,1.7676204800414607e+18,12.834460771110171,0.0543670058250427,-0.9156863692661625,-1.2119566202163696
2026-01-05 13:41:20.055,1.7676204800615058e+18,12.854505859375,-0.0452040284872055,-0.9175195693969728,-1.2119566202163696
2026-01-05 13:41:20.088,1.7676204801016108e+18,12.89461083984375,-0.1270606700411356,-0.9175195693969728,-1.2119566202163696
2026-01-05 13:41:20.121,1.767620480141707e+18,12.93470703125,-0.14110976175376685,-0.9175195693969728,-0.8136724829673767
2026-01-05 13:41:20.154,1.7676204801817946e+18,12.974794677734376,-0.11301006749272345,-0.9175195693969728,-0.2321287989616394
2026-01-05 13:41:20.187,1.7676204802069143e+18,12.99991422096797,-0.11301006749272345,-0.8095480828115813,-0.10308301232389216
2026-01-05 13:41:20.220,1.7676204802320338e+18,13.025033569335937,-0.11301006749272345,-0.6841690540313721,0.0259617732372135
2026-01-05 13:41:20.253,1.7676204802620813e+18,13.055081298828124,-0.0183259565383195,-0.6841690540313721,0.0684169083833694
2026-01-05 13:41:20.286,1.7676204803021755e+18,13.095175537109377,0.0109955742955207,-0.6841690540313721,0.098960168659687
2026-01-05 13:41:20.319,1.767620480342269e+18,13.13526904296875,0.0665843114256858,-0.8717046976089478,0.1233947798609733
2026-01-05 13:41:20.352,1.7676204803823718e+18,13.175371826171874,0.1020144969224929,-1.3555099964141846,0.2663372457027435
2026-01-05 13:41:20.385,1.7676204804074568e+18,13.200456665039063,0.1464549452066421,-1.4723379611968994,0.6997461318969727
2026-01-05 13:41:20.418,1.7676204804325417e+18,13.22554150390625,0.19089539349079127,-1.540602207183838,1.1331550180912018
2026-01-05 13:41:20.451,1.7676204804626081e+18,13.255608154296874,0.3127630054950714,-1.5711454153060913,2.0952677726745605
2026-01-05 13:41:20.484,1.7676204805026988e+18,13.29569873046875,0.5326744914054871,-1.5891659259796143,2.0952677726745605
2026-01-05 13:41:20.517,1.7676204805428262e+18,13.335826171875,0.9180540752702192,-1.6210326478948882,2.0952677726745605
2026-01-05 13:41:20.550,1.7676204805829133e+18,13.375913330078124,0.9180540752702192,-1.645976457691655,0.7855727076530457
2026-01-05 13:41:20.583,1.7676204806029573e+18,13.395957153320312,0.921738350427801,-1.6709202674884218,0.29871310293674475
2026-01-05 13:41:20.616,1.767620480623001e+18,13.4160009765625,0.9180540752702192,-1.6958638837828204,-0.1881465017795562
2026-01-05 13:41:20.649,1.7676204806630835e+18,13.45608349609375,0.9143698001126375,-1.7208075000772187,-0.8087855577468872
2026-01-05 13:41:20.682,1.76762048070318e+18,13.496179931640626,0.9106855249550558,,-1.2522737979888916
2026-01-05 13:41:20.715,1.7676204807432604e+18,13.536260498046875,0.873842716217041,,-1.441641926765442
2026-01-05 13:41:20.748,1.767620480768319e+18,13.56131915283203,0.585972473025322,,-1.7029395699501038
2026-01-05 13:41:20.781,1.7676204807933778e+18,13.586377807617188,0.4764748811721802,,-1.7029395699501038
2026-01-05 13:41:20.814,1.7676204808234286e+18,13.6164287109375,0.5809328556060791,-2.1697933673858643,-1.7029395699501038
2026-01-05 13:41:20.847,1.7676204808635305e+18,13.656530517578124,0.4764748811721802,-0.9728029146790504,-0.8356636762619019
2026-01-05 13:41:20.880,1.7676204809036145e+18,13.696614501953125,0.2981022298336029,-1.3478681041520064,-0.5510004758834839
2026-01-05 13:41:20.913,1.7676204809437053e+18,13.736705322265625,0.0097738439217209,-1.4614146430003232,0.19608482021893792
2026-01-05 13:41:20.946,1.7676204809637476e+18,13.756747602924158,0.006414098076292235,-1.5749611818486402,0.19608482021893792
2026-01-05 13:41:20.979,1.76762048098379e+18,13.7767900390625,0.0030543261673301,-1.3478681041520064,0.0280998013913631
2026-01-05 13:41:21.012,1.7676204810339116e+18,13.826911499023439,0.0030543261673301,-1.4495831727981567,0.0280998013913631
2026-01-05 13:41:21.045,1.7676204810639526e+18,13.85695263671875,0.0030543261673301,-1.4495831727981567,-0.2202169150114059
2026-01-05 13:41:21.078,1.7676204811040333e+18,13.897033203125,0.0769690200686454,-1.1362093687057495,-0.617584764957428
2026-01-05 13:41:21.111,1.767620481124116e+18,13.917115966796874,0.090408056974411,-1.1362093687057495,-0.6585127115249634
2026-01-05 13:41:21.144,1.7676204811441178e+18,13.93711767578125,0.090408056974411,-1.0873401165008545,-0.7531968355178833
2026-01-05 13:41:21.177,1.7676204811842217e+18,13.9772216796875,0.0769690200686454,-0.9963212013244628,-0.7965682744979858
2026-01-05 13:41:21.210,1.7676204812243264e+18,14.017326416015624,-0.0775798857212066,-0.949895441532135,-0.7965682744979858
2026-01-05 13:41:21.243,1.76762048126444e+18,14.057440185546875,-0.1301143020391464,-0.949895441532135,-0.7965682744979858
2026-01-05 13:41:21.276,1.7676204813045379e+18,14.097537841796877,-0.14202612488469496,-0.949895441532135,-0.5607742667198181
2026-01-05 13:41:21.309,1.7676204813245924e+18,14.11759232943931,-0.1539380401372909,-1.043968677520752,-0.5607742667198181
2026-01-05 13:41:21.342,1.767620481344647e+18,14.13764697265625,-0.1539380401372909,-1.043968677520752,-0.5607742667198181
2026-01-05 13:41:21.375,1.767620481384748e+18,14.177748046875,-0.3286454975605011,-1.043968677520752,-0.5424483831264967
2026-01-05 13:41:21.408,1.7676204814248622e+18,14.2178623046875,-0.3286454975605011,-0.7195992469787598,-0.5241223573684692
2026-01-05 13:41:21.441,1.7676204814649754e+18,14.257975341796875,-0.4001167416572571,-0.7086041326915171,-0.4312708675861358
2026-01-05 13:41:21.474,1.7676204815050857e+18,14.298085693359376,-0.42424659277416293,-0.7086041326915171,-0.2144137024879455
2026-01-05 13:41:21.507,1.7676204815251282e+18,14.318128129497719,-0.4001167416572571,-0.7086041326915171,-0.0045806747758495026
2026-01-05 13:41:21.540,1.7676204815451704e+18,14.33817041015625,-0.249843880534172,-0.8222246170043945,0.2052507251501083
2026-01-05 13:41:21.573,1.7676204815852872e+18,14.378287109375,-0.16920967400074,-0.8222246170043945,0.617584764957428
2026-01-05 13:41:21.606,1.7676204816253658e+18,14.41836572265625,0.3225368559360504,-0.8222246170043945,1.9523253440856931
2026-01-05 13:41:21.639,1.7676204816654403e+18,14.458440185546875,0.886671084224123,-0.7141014933586121,2.8093693256378174
2026-01-05 13:41:21.672,1.767620481685479e+18,14.478478881835937,0.886671084224123,-0.7141014933586121,2.8093693256378174
2026-01-05 13:41:21.705,1.7676204817055176e+18,14.498517578125,0.9101129904828505,-0.7141014933586121,2.8093693256378174
2026-01-05 13:41:21.738,1.76762048175568e+18,14.548680053710937,0.886671084224123,-1.1456777453422546,2.8093693256378174
2026-01-05 13:41:21.771,1.7676204817857244e+18,14.578724365234375,0.8632291779653953,-1.7085901498794556,2.8093693256378174
2026-01-05 13:41:21.804,1.7676204818158044e+18,14.608804565429688,0.8397872717066678,-1.7348573066920951,3.404961679422833
2026-01-05 13:41:21.837,1.767620481865883e+18,14.6588828125,0.6053674817085266,-1.7479908850984147,3.404961679422833
2026-01-05 13:41:21.870,1.7676204818859415e+18,14.678941606123665,0.34544430673122406,-1.7611244635047345,3.404961679422833
2026-01-05 13:41:21.903,1.7676204819060001e+18,14.699000244140626,0.1704314053058624,-1.7873918240872282,3.090978145599365
2026-01-05 13:41:21.936,1.7676204819460805e+18,14.73908056640625,0.32589660584926605,-1.7873918240872282,2.3628268241882324
2026-01-05 13:41:21.969,1.76762048198619e+18,14.779190185546875,0.4813618063926697,-1.5851953029632568,1.6279559135437012
2026-01-05 13:41:22.002,1.7676204820262682e+18,14.81926806640625,0.4813618063926697,-1.530370146036148,0.3866777122020721
2026-01-05 13:41:22.035,1.7676204820663542e+18,14.859354248046875,0.6583099181112158,-1.4755449891090393,-0.2559525370597839
2026-01-05 13:41:22.068,1.7676204820864003e+18,14.879400268554686,0.6583099181112158,-1.3658946752548218,-0.379652738571167
2026-01-05 13:41:22.101,1.7676204821064463e+18,14.8994462890625,0.6583099181112158,-1.3658946752548218,-0.379652738571167
2026-01-05 13:41:22.134,1.7676204821465736e+18,14.939573486328126,0.4734205603599548,-1.1734721660614014,-0.50335294008255
2026-01-05 13:41:22.167,1.7676204821866547e+18,14.97965478515625,0.40103302896022797,0.087353728711605,-1.4880677461624146
2026-01-05 13:41:22.200,1.767620482226769e+18,15.019768798828125,0.3398438652697694,0.4605923891067505,-1.7464637756347656
2026-01-05 13:41:22.233,1.7676204822468104e+18,15.039810302734374,0.3286454975605011,0.693637490272522,-1.7644842863082886
2026-01-05 13:41:22.266,1.7676204822668518e+18,15.059851806640625,0.3286454975605011,0.9266825914382936,-1.7825047969818115
2026-01-05 13:41:22.299,1.767620482316969e+18,15.109968994140626,-0.07208210229873656,0.693637490272522,-2.40161669254303
2026-01-05 13:41:22.332,1.7676204823470118e+18,15.14001171875,-0.167377084493637,0.4605923891067505,-2.5112669467926025
2026-01-05 13:41:22.365,1.767620482387113e+18,15.180113037109376,-0.167377084493637,0.4312708675861358,-2.57036817073822
2026-01-05 13:41:22.398,1.7676204824272215e+18,15.220221435546875,-0.167377084493637,-0.4062253832817077,-2.57036817073822
2026-01-05 13:41:22.431,1.7676204824523026e+18,15.245302490234376,-0.14294247142970556,-0.4596761018037796,-2.57036817073822
2026-01-05 13:41:22.464,1.7676204824773837e+18,15.270383544921875,-0.11850785836577415,-0.4596761018037796,-2.5225679874420166
2026-01-05 13:41:22.497,1.767620482507447e+18,15.300447021484375,-0.11850785836577415,-0.4596761018037796,-2.22782564163208
2026-01-05 13:41:22.530,1.7676204825475538e+18,15.3405537109375,-0.11850785836577415,-0.2797762751579284,-1.7287486791610718
2026-01-05 13:41:22.563,1.7676204825776579e+18,15.370657836914063,-0.16920966655015945,-0.2797762751579284,-1.282206118106842
2026-01-05 13:41:22.596,1.7676204826277642e+18,15.42076416015625,-0.2064724564552307,-0.2797762751579284,-0.9175195693969728
2026-01-05 13:41:22.629,1.7676204826478124e+18,15.440812422236894,-0.2064724564552307,-0.28466318142310837,-0.9175195693969728
2026-01-05 13:41:22.662,1.7676204826678607e+18,15.46086083984375,-0.2064724564552307,-0.2895501255989074,-0.9175195693969728
2026-01-05 13:41:22.695,1.7676204827079795e+18,15.5009794921875,-0.1832595765590667,-0.4599815309047699,-0.9175195693969728
2026-01-05 13:41:22.728,1.7676204827480673e+18,15.5410673828125,-0.1832595765590667,-0.4728097021579742,-0.6982190012931824
2026-01-05 13:41:22.761,1.7676204827881408e+18,15.581140869140626,-0.1832595765590667,-0.5497786998748779,0.4728097021579742
2026-01-05 13:41:22.794,1.767620482808177e+18,15.601176924237366,-0.1832595765590667,-0.8732305736090975,1.4431654276683574
2026-01-05 13:41:22.827,1.7676204828282132e+18,15.621213134765624,-0.1832595765590667,-0.8732305736090975,2.413528680801392
2026-01-05 13:41:22.860,1.767620482868282e+18,15.6612822265625,-0.0232128798961639,-1.0311405658721924,2.432261815902947
2026-01-05 13:41:22.893,1.7676204829083494e+18,15.701349365234377,0.0610865242779254,-1.18740718404888,2.450994951004502
2026-01-05 13:41:22.926,1.7676204829484178e+18,15.741417724609375,0.10345205898275645,-1.18740718404888,2.4697282314300537
2026-01-05 13:41:22.959,1.767620482988499e+18,15.7814990234375,0.12463466200920555,-1.18740718404888,2.7207937240600586
2026-01-05 13:41:22.992,1.767620483008536e+18,15.801536254882812,0.14581726503565465,-1.2655404931372238,2.733927369117737
2026-01-05 13:41:23.025,1.7676204830285734e+18,15.821573486328123,0.16699986806210376,-1.3436738022255676,2.733927369117737
2026-01-05 13:41:23.058,1.7676204830686474e+18,15.8616474609375,0.18818247108855288,-1.4218071113139117,2.7207937240600586
2026-01-05 13:41:23.091,1.7676204831087347e+18,15.901734619140624,,-1.4999404204022555,2.7030787467956543
2026-01-05 13:41:23.124,1.7676204831488095e+18,15.9418095703125,,-2.281275935790654,2.252871036529541
2026-01-05 13:41:23.157,1.767620483188923e+18,15.9819228515625,,-2.243860576461611,1.6010777950286863
2026-01-05 13:41:23.190,1.7676204832089695e+18,16.001969438107565,,-2.2064452171325684,1.2880081610101495
2026-01-05 13:41:23.223,1.7676204832290158e+18,16.022015869140624,,-2.072665750980377,0.9749409556388856
2026-01-05 13:41:23.256,1.767620483269096e+18,16.062095947265625,,-1.938886284828186,0.4508185386657715
2026-01-05 13:41:23.289,1.7676204832991816e+18,16.09218151855469,,-1.549765169620514,0.10201449785381554
2026-01-05 13:41:23.322,1.7676204833492844e+18,16.142284423828126,,-1.282817006111145,-0.2663372457027435
2026-01-05 13:41:23.355,1.7676204833693325e+18,16.162332475222623,,-1.0271689214545898,-0.2663372457027435
2026-01-05 13:41:23.388,1.7676204833893804e+18,16.18238037109375,0.7812966704368591,-0.7715228199958801,-0.2959640963090177
2026-01-05 13:41:23.421,1.767620483429456e+18,16.222455810546876,0.694553792476654,-0.7446447610855103,-0.2959640963090177
2026-01-05 13:41:23.454,1.767620483469533e+18,16.262532958984377,0.607810914516449,-0.2400700449943542,-0.7305948138237
2026-01-05 13:41:23.487,1.767620483509642e+18,16.30264208984375,0.4792237877845764,0.3194825351238251,-1.5583171844482422
2026-01-05 13:41:23.520,1.7676204835497285e+18,16.342728515625,0.3506366610527038,0.6481280326843262,-1.6603317260742188
2026-01-05 13:41:23.553,1.7676204835697795e+18,16.362779418945316,0.23671028763055796,0.7238753437995911,-1.6975944638252258
2026-01-05 13:41:23.586,1.7676204835898304e+18,16.382830322265626,0.1227839142084121,0.7238753437995911,-1.835039138793945
2026-01-05 13:41:23.619,1.7676204836299336e+18,16.42293359375,-0.1423316001892089,0.7238753437995911,-1.835039138793945
2026-01-05 13:41:23.652,1.767620483670039e+18,16.4630390625,-0.1423316001892089,-0.3793473243713379,-1.8368717432022093
2026-01-05 13:41:23.685,1.7676204837101422e+18,16.50314208984375,-0.1423316001892089,-0.5326744914054871,-1.835039138793945
2026-01-05 13:41:23.718,1.7676204837502536e+18,16.543253662109375,-0.0171042270958423,-0.6023131608963013,-1.8332066535949707
2026-01-05 13:41:23.751,1.7676204837703462e+18,16.56334619140625,-0.0171042270958423,-0.6065891981124878,-1.8332066535949707
2026-01-05 13:41:23.784,1.7676204837903557e+18,16.583355712890626,-0.0171042270958423,-0.6023131608963013,-1.784948229789734
2026-01-05 13:41:23.817,1.7676204838304717e+18,16.6234716796875,-0.1679879426956176,-0.6065891981124878,-1.5503759384155271
2026-01-05 13:41:23.850,1.7676204838705759e+18,16.663575927734374,-0.1850921660661697,-0.6065891981124878,-1.2901474237442017
2026-01-05 13:41:23.883,1.7676204839106806e+18,16.7036806640625,-0.192422553896904,-0.5986479222774506,-1.1301007270812988
2026-01-05 13:41:23.916,1.7676204839307443e+18,16.723744384765624,-0.26450464874505997,-0.5418374538421631,-1.1301007270812988
2026-01-05 13:41:23.949,1.767620483950808e+18,16.74380810546875,-0.26450464874505997,-0.5418374538421631,-1.1154399514198303
2026-01-05 13:41:23.982,1.767620483990911e+18,16.783910888671876,-0.26450464874505997,-0.3817907869815826,-1.1007791757583618
2026-01-05 13:41:24.015,1.767620484031008e+18,16.824008056640626,-0.0952949747443199,-0.3817907869815826,-1.045190453529358
2026-01-05 13:41:24.048,1.7676204840611082e+18,16.854108154296874,-0.0415388382971286,-0.3817907869815826,-0.6472117304801941
2026-01-05 13:41:24.081,1.7676204841111903e+18,16.904190185546874,-0.0033597587607801004,-0.3817907869815826,0.8741481900215149
2026-01-05 13:41:24.114,1.7676204841312458e+18,16.92424577181786,0.06352957376136129,-0.5577208066888935,1.1976000935579414
2026-01-05 13:41:24.147,1.7676204841513016e+18,16.944301513671874,0.1685988008975982,-0.7757988572120667,1.52105450630188
2026-01-05 13:41:24.180,1.767620484191387e+18,16.984386962890625,0.1765400618314743,-0.932791233062744,2.598620653152466
2026-01-05 13:41:24.213,1.76762048423148e+18,17.02447998046875,0.8370598523971434,-1.0971139669418335,2.6902506351470947
2026-01-05 13:41:24.246,1.7676204842715692e+18,17.064569091796876,0.8370598523971434,-1.2357803583145142,2.8032606840133667
2026-01-05 13:41:24.279,1.767620484311701e+18,17.104700927734374,0.8464846073464547,-1.2553280591964722,2.8032606840133667
2026-01-05 13:41:24.312,1.7676204843317504e+18,17.12475036621094,0.8370598523971434,-1.7140879034996033,2.8032606840133667
2026-01-05 13:41:24.345,1.7676204843517998e+18,17.1447998046875,0.8276350974478321,-1.9272798299789429,2.8032606840133667
2026-01-05 13:41:24.378,1.767620484391897e+18,17.18489697265625,0.7805112495878834,-2.1291716181090226,2.8032606840133667
2026-01-05 13:41:24.411,1.7676204844319826e+18,17.224982666015624,0.6579022124736063,-2.1291716181090226,2.506990909576416
2026-01-05 13:41:24.444,1.7676204844721055e+18,17.26510546875,0.5729922682699664,-1.9553807520884612,2.186286687850952
2026-01-05 13:41:24.477,1.76762048449215e+18,17.285150068735472,0.5167923286883584,-1.9272798299789429,1.7134788494201696
2026-01-05 13:41:24.510,1.7676204845121948e+18,17.30519482421875,0.5729922682699664,-1.6597208976745603,1.2406673431396484
2026-01-05 13:41:24.543,1.7676204845523208e+18,17.34532080078125,0.5729922682699664,-1.207680583000183,0.7171558141708374
2026-01-05 13:41:24.576,1.767620484592397e+18,17.38539697265625,0.7141014933586121,-0.656069278717041,-0.2675589919090271
2026-01-05 13:41:24.609,1.7676204846324803e+18,17.425480224609377,0.7141014933586121,-0.5088507533073425,-0.4123340547084808
2026-01-05 13:41:24.642,1.767620484672565e+18,17.46556494140625,0.7141014933586121,-0.4294382631778717,-0.6548475623130798
2026-01-05 13:41:24.675,1.7676204846926188e+18,17.48561873012769,0.5387814362019877,-0.14996850112696145,-0.6783674498386693
2026-01-05 13:41:24.708,1.7676204847126723e+18,17.50567236328125,0.513737678527832,0.1295034289360046,-1.0891727209091189
2026-01-05 13:41:24.741,1.767620484752746e+18,17.54574609375,0.1398881375789642,0.5198463201522827,-1.960266590118408
2026-01-05 13:41:24.774,1.7676204847928236e+18,17.585823486328124,0.1295034289360046,1.2424999475479126,-2.3206770420074463
2026-01-05 13:41:24.807,1.7676204848328968e+18,17.625896728515624,0.1295034289360046,1.2424999475479126,-2.3206770420074463
2026-01-05 13:41:24.840,1.7676204848729833e+18,17.6659833984375,-0.2162462919950485,0.7974845618009567,-2.307237982749939
2026-01-05 13:41:24.873,1.76762048489303e+18,17.68602978515625,-0.3320052549242973,0.7974845618009567,-2.445293664932251
2026-01-05 13:41:24.906,1.7676204849130762e+18,17.706076171875,-0.4477642178535461,0.685390830039978,-2.3741278648376465
2026-01-05 13:41:24.939,1.767620484953199e+18,17.74619921875,-0.4477642178535461,0.6010914146900177,-2.307237982749939
2026-01-05 13:41:24.972,1.7676204849832863e+18,17.776286254882812,-0.4477642178535461,0.2437352389097213,-2.136195659637451
2026-01-05 13:41:25.005,1.767620485033391e+18,17.82639111328125,-0.4068362414836883,0.2437352389097213,-1.6224581003189087
2026-01-05 13:41:25.038,1.7676204850534387e+18,17.846438798463392,-0.3707953450307446,0.2437352389097213,-1.302363465421137
2026-01-05 13:41:25.071,1.7676204850734863e+18,17.866486328125,-0.3347541689872741,0.2437352389097213,-0.9822713136672974
2026-01-05 13:41:25.104,1.7676204851135928e+18,17.9065927734375,-0.2247984111309051,0.16035180606441649,-0.636521577835083
2026-01-05 13:41:25.137,1.7676204851536993e+18,17.94669921875,-0.1679879426956176,0.128892570734024,-0.504574716091156
2026-01-05 13:41:25.170,1.7676204851938063e+18,17.986806396484376,-0.13377948850393295,0.128892570734024,-0.4954117238521576
2026-01-05 13:41:25.203,1.767620485233914e+18,18.0269140625,-0.13377948850393295,0.128892570734024,-0.4746423065662384
2026-01-05 13:41:25.236,1.76762048525397e+18,18.046969848632813,-0.1264491081237793,0.128892570734024,-0.4746423065662384
2026-01-05 13:41:25.269,1.7676204852740257e+18,18.067025634765624,-0.13377948850393295,0.10995574761182066,-0.4538728892803192
2026-01-05 13:41:25.302,1.7676204853141363e+18,18.10713623046875,-0.13377948850393295,0.10995574761182066,-0.221133217215538
2026-01-05 13:41:25.335,1.7676204853542088e+18,18.147208740234376,-0.0207694191485643,-0.0757472887635231,0.4227187633514404
2026-01-05 13:41:25.368,1.7676204853942879e+18,18.187287841796877,0.0733038261532783,-0.4007275998592376,1.2651019096374512
2026-01-05 13:41:25.401,1.7676204854143299e+18,18.207329711914063,0.07666358724236486,-0.4007275998592376,1.8414533138275146
2026-01-05 13:41:25.434,1.7676204854343716e+18,18.22737158203125,0.0800233483314514,-0.4007275998592376,2.417804718017578
2026-01-05 13:41:25.467,1.7676204854744604e+18,18.26746044921875,0.656680166721344,-0.5009094923734665,2.417804718017578
2026-01-05 13:41:25.500,1.7676204855145475e+18,18.30754736328125,0.9468410306820725,-0.6010913848876953,2.7207937240600586
2026-01-05 13:41:25.533,1.767620485554638e+18,18.34763818359375,0.9468410306820725,-1.064738154411316,2.944981336593628
2026-01-05 13:41:25.566,1.7676204855947402e+18,18.387740234375,0.9468410306820725,-1.1438456607978127,2.944981336593628
2026-01-05 13:41:25.599,1.767620485614785e+18,18.40778515625,0.9236281958048271,-1.2229525535054062,2.944981336593628
2026-01-05 13:41:25.632,1.76762048563483e+18,18.427830078125,0.9004153609275818,-1.3020594462129997,2.944981336593628
2026-01-05 13:41:25.665,1.767620485674914e+18,18.4679140625,0.4770857691764831,-1.3020594462129997,2.717739582061768
2026-01-05 13:41:25.698,1.7676204857149985e+18,18.50799853515625,-0.0103847095742821,-1.3020594462129997,2.0005836486816406
2026-01-05 13:41:25.731,1.7676204857551268e+18,18.548126708984373,-0.0103847095742821,-1.007927656173706,1.4104878902435305
2026-01-05 13:41:25.764,1.767620485795218e+18,18.588218017578125,-0.0103847095742821,-0.2412917762994766,0.3439171314239502
2026-01-05 13:41:25.797,1.7676204858152579e+18,18.608257856839877,0.04001142275465251,-0.2370157092809677,-0.1563795771001245
2026-01-05 13:41:25.830,1.7676204858352978e+18,18.6282978515625,0.1050688251852989,-0.21960597269528254,-0.656680166721344
2026-01-05 13:41:25.863,1.767620485875398e+18,18.66839794921875,0.1050688251852989,-0.21960597269528254,-0.9034696817398072
2026-01-05 13:41:25.896,1.7676204859154816e+18,18.708481689453127,0.1050688251852989,0.0494800843298435,-0.95783668756485
2026-01-05 13:41:25.929,1.7676204859555666e+18,18.748566650390625,0.2138028293848037,0.5891774243257077,-1.2357803583145142
2026-01-05 13:41:25.962,1.7676204859756116e+18,18.768611616585616,0.021990404595661983,0.6682865619659424,-1.7165294715800758
2026-01-05 13:41:25.995,1.7676204859956567e+18,18.78865673828125,-0.087353728711605,1.1288789510726929,-2.197282314300537
2026-01-05 13:41:26.028,1.767620486035753e+18,18.8287529296875,-0.087353728711605,1.1429288387298584,-2.33533787727356
2026-01-05 13:41:26.061,1.7676204860758492e+18,18.86884912109375,-0.16920967400074,1.1429288387298584,-2.395813465118408
2026-01-05 13:41:26.094,1.7676204861159462e+18,18.9089462890625,-0.3084869384765625,1.1429288387298584,-2.3979514837265015
2026-01-05 13:41:26.127,1.7676204861561106e+18,18.949110595703125,-0.375071257352829,1.0305296182632446,-2.3979514837265015
2026-01-05 13:41:26.160,1.7676204861761513e+18,18.96915124511719,-0.4187481254339218,0.8692612051963806,-2.395813465118408
2026-01-05 13:41:26.193,1.767620486196192e+18,18.98919189453125,-0.4187481254339218,0.7079927921295166,-2.375654935836792
2026-01-05 13:41:26.226,1.7676204862362783e+18,19.0292783203125,-0.4624249935150146,0.3683517575263977,-2.1282544136047363
2026-01-05 13:41:26.259,1.7676204862763707e+18,19.06937060546875,-0.4624249935150146,0.3683517575263977,-1.5729780197143557
2026-01-05 13:41:26.292,1.767620486316469e+18,19.109468994140624,-0.4080579876899719,0.3683517575263977,-1.0696250200271606
2026-01-05 13:41:26.325,1.7676204863565773e+18,19.149577392578124,-0.3836233615875244,0.3286454975605011,-0.6811147332191467
2026-01-05 13:41:26.358,1.7676204863766367e+18,19.16963679655572,-0.3613268703790201,0.3286454975605011,-0.5858193962971602
2026-01-05 13:41:26.391,1.767620486396696e+18,19.189696044921877,-0.3390302062034607,0.2266310006380081,-0.5589417219161987
2026-01-05 13:41:26.424,1.7676204864368128e+18,19.229812744140624,-0.1459967941045761,0.0348193198442459,-0.4905247986316681
2026-01-05 13:41:26.457,1.7676204864769213e+18,19.26992138671875,-0.0720821022987365,0.027794342248165686,-0.4740314185619354
2026-01-05 13:41:26.490,1.7676204865169938e+18,19.30999389648437,-0.0720821022987365,0.0207694191485643,-0.3139847218990326
2026-01-05 13:41:26.523,1.7676204865370486e+18,19.3300486617721,0.005191877898475583,0.0207694191485643,0.10537588833825778
2026-01-05 13:41:26.556,1.7676204865571034e+18,19.35010327148437,0.1270599663257599,0.0207694191485643,0.5247332453727722
2026-01-05 13:41:26.589,1.7676204865971732e+18,19.39017333984375,0.152105450630188,0.0207694191485643,1.299310326576233
2026-01-05 13:41:26.622,1.7676204866372477e+18,19.43024780273437,0.2596177160739898,0.0207694191485643,2.311514139175415
2026-01-05 13:41:26.655,1.7676204866773248e+18,19.47032470703125,0.7562511563301086,-0.07757988572120667,2.353052854537964
2026-01-05 13:41:26.688,1.7676204867174377e+18,19.510437744140624,0.7745771408081055,-0.07757988572120667,2.367713689804077
2026-01-05 13:41:26.721,1.7676204867374717e+18,19.530471801757812,0.8445208096669469,-0.07757988572120667,2.4239132404327397
2026-01-05 13:41:26.754,1.7676204867575058e+18,19.550505859375,0.8445208096669469,-0.7776314616203308,2.4239132404327397
2026-01-05 13:41:26.787,1.767620486797592e+18,19.590592041015626,0.8445208096669469,-1.4611896276474,2.503325700759888
2026-01-05 13:41:26.820,1.7676204868376689e+18,19.6306689453125,0.7452555894851685,-1.4611896276474,2.503325700759888
2026-01-05 13:41:26.853,1.7676204868777408e+18,19.67074072265625,0.3347541689872741,-1.4611896276474,2.503325700759888
2026-01-05 13:41:26.886,1.7676204869178156e+18,19.71081567382813,-0.1631010174751281,-1.359786033630371,1.8777997493743896
2026-01-05 13:41:26.919,1.7676204869378765e+18,19.730876708984376,-0.1631010174751281,-1.092837929725647,1.6032158136367798
2026-01-05 13:41:26.952,1.7676204869579377e+18,19.750937744140625,-0.1631010174751281,-0.8258898258209229,1.32863187789917
2026-01-05 13:41:26.985,1.7676204869980124e+18,19.791012451171877,-0.0317649915814399,-0.3543018400669098,0.5510004758834839
2026-01-05 13:41:27.018,1.7676204870380956e+18,19.831095703125,0.1551597714424133,-0.2205223590135574,-0.2840523421764374
2026-01-05 13:41:27.051,1.767620487078183e+18,19.871182861328126,0.2168571650981903,-0.0739146918058395,-0.3659082949161529
2026-01-05 13:41:27.084,1.76762048709822e+18,19.891220092773438,0.2168571650981903,-0.0311541277915239,-0.5861252099275589
2026-01-05 13:41:27.117,1.7676204871182574e+18,19.91125732421875,0.2168571650981903,0.2083050534129143,-0.8063421249389648
2026-01-05 13:41:27.150,1.7676204871583265e+18,19.951326416015625,0.0708603709936142,0.6059783101081848,-1.2736539840698242
2026-01-05 13:41:27.183,1.767620487198411e+18,19.99141088867188,-0.0134390350431203,0.637132465839386,-1.7165313959121704
2026-01-05 13:41:27.216,1.7676204872384878e+18,20.03148779296875,-0.1844813078641891,1.081842303276062,-2.213775634765625
2026-01-05 13:41:27.249,1.7676204872785644e+18,20.071564453125,-0.2180788964033126,1.3808597052887954,-2.237599372863769
2026-01-05 13:41:27.282,1.7676204872986045e+18,20.09160453652643,-0.25656325343939795,1.4037683010101318,-2.3011293411254883
2026-01-05 13:41:27.315,1.7676204873186447e+18,20.111644775390623,-0.2950479090213775,1.3808597052887954,-2.3026561865844477
2026-01-05 13:41:27.348,1.76762048735873e+18,20.15172998046875,-0.4312708675861358,1.3808597052887954,-2.3182334899902344
2026-01-05 13:41:27.381,1.7676204873988116e+18,20.191811767578123,-0.4465425014495849,1.1753047704696655,-2.3182334899902344
2026-01-05 13:41:27.414,1.7676204874389038e+18,20.23190380859375,-0.4990769028663635,1.1362093687057495,-2.3011293411254883
2026-01-05 13:41:27.447,1.7676204874789711e+18,20.27197119140625,-0.5088507533073425,0.7996225953102112,-1.852143406867981
2026-01-05 13:41:27.480,1.7676204874990193e+18,20.292019409179687,-0.5088507533073425,0.6102544069290161,-1.5308282971382141
2026-01-05 13:41:27.513,1.7676204875190676e+18,20.312067626953127,-0.5088507533073425,0.6102544069290161,-1.2095131874084473
2026-01-05 13:41:27.546,1.7676204875591708e+18,20.3521708984375,-0.3109304010868072,0.5885686576366425,-0.7971791625022888
2026-01-05 13:41:27.579,1.7676204875992865e+18,20.39228662109375,-0.2345722615718841,0.4337143301963806,-0.5681046843528748
2026-01-05 13:41:27.612,1.7676204876393925e+18,20.432392578125,-0.22846362874040918,0.4337143301963806,-0.5681046843528748
2026-01-05 13:41:27.645,1.7676204876594534e+18,20.4524535354689,-0.2223549485206604,0.25289891759354943,-0.5681046843528748
2026-01-05 13:41:27.678,1.7676204876795146e+18,20.4725146484375,-0.2223549485206604,0.0720821022987365,-0.5772676467895508
2026-01-05 13:41:27.711,1.767620487719629e+18,20.512629150390627,-0.2223549485206604,0.0177150927484035,-0.5772676467895508
2026-01-05 13:41:27.744,1.7676204877597284e+18,20.552728271484376,-0.1056796908378601,-0.128892570734024,-0.5772676467895508
2026-01-05 13:41:27.777,1.7676204877998144e+18,20.592814453125,-0.0757472887635231,-0.1600466966629028,0.3640756905078888
2026-01-05 13:41:27.810,1.767620487839928e+18,20.632927978515625,-0.02932135075852252,-0.2657263875007629,1.4306464195251465
2026-01-05 13:41:27.843,1.767620487859972e+18,20.65297212364497,-0.02932135075852252,-0.2657263875007629,1.9532436137170492
2026-01-05 13:41:27.876,1.7676204878800161e+18,20.67301611328125,0.0171042270958423,-0.1600466966629028,2.475836753845215
2026-01-05 13:41:27.909,1.767620487920145e+18,20.713144775390624,0.6939429044723511,-0.284358253452782,2.475836753845215
2026-01-05 13:41:27.942,1.767620487960242e+18,20.75324194335937,0.8616260833718373,-0.4086688458919525,2.58457088470459
2026-01-05 13:41:27.975,1.7676204880003246e+18,20.79332470703125,0.9676105380058289,-0.9669997096061708,3.0350838899612427
2026-01-05 13:41:28.008,1.7676204880404232e+18,20.833423095703125,0.9676105380058289,-1.3838134209314983,2.9663615226745605
2026-01-05 13:41:28.041,1.7676204880604723e+18,20.853472290039065,0.9676105380058289,-1.643227458000183,2.9663615226745605
2026-01-05 13:41:28.074,1.7676204880805215e+18,20.873521484375,0.7177666425704956,-1.643227458000183,2.9663615226745605
2026-01-05 13:41:28.107,1.767620488120606e+18,20.91360595703125,0.5668829679489136,-1.643227458000183,2.838079929351806
2026-01-05 13:41:28.140,1.7676204881607247e+18,20.953724853515624,-0.0983489360563836,-1.4984524250030518,2.029905319213867
2026-01-05 13:41:28.173,1.7676204882008072e+18,20.99380712890625,-0.0983489360563836,-0.9059131741523744,1.386053204536438
2026-01-05 13:41:28.206,1.7676204882208486e+18,21.013848588478307,-0.0983489360563836,-0.6582063514296641,0.9101873506954328
2026-01-05 13:41:28.239,1.7676204882408899e+18,21.033889892578124,-0.0030543261673301,-0.4105014503002167,0.4343251883983612
2026-01-05 13:41:28.272,1.767620488280967e+18,21.073966796875,-0.0030543261673301,-0.271224170923233,-0.5583308339118958
2026-01-05 13:41:28.305,1.7676204883210468e+18,21.114046875,0.0238237436860799,-0.0036651915870606,-0.5791002511978149
2026-01-05 13:41:28.338,1.7676204883611233e+18,21.154123291015622,0.07605272065848105,0.0867428630590438,-1.1227703094482422
2026-01-05 13:41:28.371,1.7676204884012042e+18,21.194204345703124,0.07605272065848105,0.4074471294879913,-1.6786576509475708
2026-01-05 13:41:28.404,1.7676204884212419e+18,21.21424182128906,0.0238237436860799,0.8866709023714066,-1.8860464692115784
2026-01-05 13:41:28.437,1.7676204884412792e+18,21.234279296875,0.0238237436860799,1.3658946752548218,-2.093435287475586
2026-01-05 13:41:28.470,1.7676204884813906e+18,21.274390625,-0.2156354337930679,1.3658946752548218,-2.41719388961792
2026-01-05 13:41:28.503,1.7676204885214671e+18,21.314467041015625,-0.2730567753314972,1.3658946752548218,-2.422691583633423
2026-01-05 13:41:28.536,1.7676204885615337e+18,21.35453369140625,-0.3017674386501312,1.3164145946502686,-2.4636194310548567
2026-01-05 13:41:28.569,1.7676204886016067e+18,21.394606689453123,-0.3995058834552765,1.123992085456848,-2.504547595977783
2026-01-05 13:41:28.602,1.7676204886216658e+18,21.414665693679602,-0.42394038497896946,1.029307594205008,-2.4636194310548567
2026-01-05 13:41:28.635,1.767620488641725e+18,21.434724853515625,-0.4483750760555267,0.9346238374710084,-2.422691583633423
2026-01-05 13:41:28.668,1.767620488681804e+18,21.474803955078126,-0.4483750760555267,0.6969972252845764,-1.8203784227371216
2026-01-05 13:41:28.701,1.7676204887218967e+18,21.514896728515627,-0.4483750760555267,0.6969972252845764,-1.3280210494995115
2026-01-05 13:41:28.734,1.7676204887619945e+18,21.554994384765624,-0.3824016451835632,0.6969972252845764,-0.8100073337554932
2026-01-05 13:41:28.767,1.7676204887820419e+18,21.575041748046875,-0.2721404656767845,0.5149593949317932,-0.5616905987262726
2026-01-05 13:41:28.800,1.7676204888020892e+18,21.595089111328125,-0.2064724564552307,0.5149593949317932,-0.5400048494338989
2026-01-05 13:41:28.833,1.7676204888421914e+18,21.63519140625,-0.1618792861700058,0.3457497358322143,-0.5400048494338989
2026-01-05 13:41:28.866,1.767620488882302e+18,21.675302001953124,-0.1618792861700058,0.3457497358322143,-0.313373863697052
2026-01-05 13:41:28.899,1.767620488922398e+18,21.71539794921875,-0.1814270222508008,0.1090405464241952,-0.2302961945533752
2026-01-05 13:41:28.932,1.7676204889624742e+18,21.75547412109375,-0.1704314053058624,-0.0421497002243995,-0.2089159190654754
2026-01-05 13:41:28.965,1.767620488982514e+18,21.775513960355504,-0.1704314053058624,-0.0421497002243995,0.3283379845615401
2026-01-05 13:41:28.998,1.7676204890025539e+18,21.795553955078127,-0.1704314053058624,-0.1740965992212295,0.8655960559844971
2026-01-05 13:41:29.031,1.7676204890426614e+18,21.835661376953126,0.0109955742955207,-0.1740965992212295,1.6071864366531372
2026-01-05 13:41:29.064,1.767620489082736e+18,21.87573608398437,0.1563815027475357,-0.1740965992212295,1.8515325784683228
2026-01-05 13:41:29.097,1.7676204891228157e+18,21.915815673828124,0.8104959727601483,-0.5992587804794312,2.1875097074313468
2026-01-05 13:41:29.130,1.767620489152894e+18,21.94589404296875,0.8104959727601483,-0.7617489695549011,2.523484230041504
2026-01-05 13:41:29.163,1.767620489177943e+18,21.970943090323438,0.8219802975020669,-0.9636459758702121,2.523484230041504
2026-01-05 13:41:29.196,1.7676204892029919e+18,21.99599194335937,0.7990117371082306,-1.1437469309395851,2.523484230041504
2026-01-05 13:41:29.229,1.7676204892430797e+18,22.03607958984375,0.7645589410624765,-1.3238478860089584,2.523484230041504
2026-01-05 13:41:29.262,1.7676204892831867e+18,22.076186767578125,0.39797869324684143,-1.4868459701538086,2.523484230041504
2026-01-05 13:41:29.295,1.7676204893232653e+18,22.11626538085937,-0.011911872774362578,-1.4868459701538086,2.484999895095825
2026-01-05 13:41:29.328,1.7676204893433037e+18,22.136303588867186,-0.07819075137376785,-1.4868459701538086,2.170098841190338
2026-01-05 13:41:29.361,1.7676204893633418e+18,22.156341796875,-0.07819075137376785,-1.3744467496871948,1.855197787284851
2026-01-05 13:41:29.394,1.7676204894034158e+18,22.19641577148437,-0.07819075137376785,-0.7709119319915771,1.243721604347229
2026-01-05 13:41:29.427,1.7676204894434977e+18,22.236497802734377,0.0952949747443199,-0.5167919993400574,0.5668829679489136
2026-01-05 13:41:29.460,1.7676204894835768e+18,22.276576904296878,0.2761110961437225,-0.1875356286764145,-0.4734205603599548
2026-01-05 13:41:29.493,1.7676204895236605e+18,22.31666064453125,0.3854559659957886,-0.1698205322027206,-0.4734205603599548
2026-01-05 13:41:29.526,1.7676204895436984e+18,22.33669856405051,0.3854559659957886,-0.1185078546404838,-0.6020061701680328
2026-01-05 13:41:29.559,1.7676204895637363e+18,22.356736328125,0.3854559659957886,0.07422107493753077,-0.996932089328766
2026-01-05 13:41:29.592,1.767620489603816e+18,22.39681591796875,0.1069014146924018,0.16920967400074,-1.0335839986801147
2026-01-05 13:41:29.625,1.7676204896438927e+18,22.436892822265627,-0.1111774742603302,0.3182607889175415,-1.3946053981781006
2026-01-05 13:41:29.658,1.767620489683976e+18,22.476975830078125,-0.19517177140230513,1.166752576828003,-1.8967366218566892
2026-01-05 13:41:29.691,1.7676204897040166e+18,22.49701667929625,-0.19517177140230513,1.296866389083454,-2.1029044041838887
2026-01-05 13:41:29.724,1.7676204897240573e+18,22.517057373046875,-0.1111774742603302,1.296866389083454,-2.309070587158203
2026-01-05 13:41:29.757,1.7676204897641452e+18,22.557145263671877,-0.15332717821002,1.166752576828003,-2.384512424468994
2026-01-05 13:41:29.790,1.7676204898042442e+18,22.597244140625,-0.15332717821002,1.0690141916275024,-2.384512424468994
2026-01-05 13:41:29.823,1.767620489834348e+18,22.627348022460936,-0.15332717821002,0.5899431258440018,-2.384512424468994
2026-01-05 13:41:29.856,1.767620489874435e+18,22.66743505859375,-0.4502076804637909,0.5899431258440018,-2.2876904010772705
2026-01-05 13:41:29.889,1.7676204898994842e+18,22.692484252929688,-0.4502076804637909,0.5899431258440018,-2.0787744522094727
2026-01-05 13:41:29.922,1.7676204899245335e+18,22.717533447265627,-0.4502076804637909,0.5899431258440018,-1.8698585033416748
2026-01-05 13:41:29.955,1.7676204899646205e+18,22.75762060546875,-0.3048217594623565,0.7238753437995911,-1.3237450122833252
2026-01-05 13:41:29.988,1.767620490004714e+18,22.7977138671875,-0.2083050459623336,0.7238753437995911,-0.7751879692077637
2026-01-05 13:41:30.021,1.7676204900448146e+18,22.837814697265625,-0.2083050459623336,0.5662720799446106,-0.4740314185619354
2026-01-05 13:41:30.054,1.7676204900849213e+18,22.87792138671875,-0.1985312104225158,0.4966334402561188,-0.4428772926330566
2026-01-05 13:41:30.087,1.767620490105001e+18,22.8980009765625,-0.1832595765590667,0.3145956099033355,-0.4428772926330566
2026-01-05 13:41:30.120,1.767620490125011e+18,22.918010986328124,-0.1832595765590667,0.3145956099033355,-0.4166100919246673
2026-01-05 13:41:30.153,1.7676204901651123e+18,22.9581123046875,-0.1832595765590667,0.3145956099033355,-0.4166100919246673
2026-01-05 13:41:30.186,1.7676204902052165e+18,22.998216552734377,-0.167377084493637,0.4868595898151397,-0.4062253832817077
2026-01-05 13:41:30.219,1.7676204902453212e+18,23.0383212890625,-0.167377084493637,0.4868595898151397,-0.1221730485558509
2026-01-05 13:41:30.252,1.7676204902654016e+18,23.05840161132813,-0.1484402567148208,0.4868595898151397,-0.0177150927484035
2026-01-05 13:41:30.285,1.7676204902853957e+18,23.078395751953124,-0.0659734457731247,0.4257730841636657,0.2553416788578033
2026-01-05 13:41:30.318,1.7676204903255048e+18,23.1185048828125,0.0244346093386411,0.0146607663482427,0.4379903674125671
2026-01-05 13:41:30.351,1.767620490365578e+18,23.158577880859376,0.0561996027827262,0.0146607663482427,1.971262097358704
2026-01-05 13:41:30.384,1.767620490405654e+18,23.198654052734376,0.6285803318023682,0.0146607663482427,2.182316691544213
2026-01-05 13:41:30.417,1.7676204904457352e+18,23.238735107421878,0.793514222613998,0.0146607663482427,2.182316691544213
2026-01-05 13:41:30.450,1.7676204904657672e+18,23.25876713421393,0.8197811841964722,0.0146607663482427,2.3438899517059326
2026-01-05 13:41:30.483,1.7676204904857994e+18,23.27879931640625,0.8527678847312927,-0.3866777122020721,2.3438899517059326
2026-01-05 13:41:30.516,1.7676204905258703e+18,23.318870361328123,0.8527678847312927,-1.674992561340332,2.5387558937072754
2026-01-05 13:41:30.549,1.7676204905659681e+18,23.358968017578125,0.8197811841964722,-1.674992561340332,2.5387558937072754
2026-01-05 13:41:30.582,1.7676204906060398e+18,23.39903979492188,0.788627028465271,-1.674992561340332,2.5387558937072754
2026-01-05 13:41:30.615,1.767620490646151e+18,23.43915087890625,0.1001818999648094,-1.4660766124725342,2.188730239868164
2026-01-05 13:41:30.648,1.767620490666195e+18,23.459194946289067,-0.0812450833618641,-1.2803735733032227,1.9086484909057617
2026-01-05 13:41:30.681,1.767620490686239e+18,23.47923901367188,-0.0812450833618641,-1.0946705341339111,1.6285667419433594
2026-01-05 13:41:30.714,1.76762049072632e+18,23.519320068359374,-0.0812450833618641,-0.4269948005676269,0.8802568316459656
2026-01-05 13:41:30.747,1.7676204907663987e+18,23.559398681640623,-0.0409279726445674,-0.41722095012664795,-0.0207694191485643
2026-01-05 13:41:30.780,1.7676204907965112e+18,23.589511108398437,0.14080443978309626,-0.1789835095405578,-0.6688974499702454
2026-01-05 13:41:30.813,1.7676204908215473e+18,23.614547083066356,0.14080443978309626,-0.1789835095405578,-0.6688974499702454
2026-01-05 13:41:30.846,1.7676204908465833e+18,23.639583251953123,0.14080443978309626,-0.1521064677791521,-0.6936373943113396
2026-01-05 13:41:30.879,1.76762049088669e+18,23.67968994140625,-0.0122173046693205,0.0140499006956815,-0.7183775305747986
2026-01-05 13:41:30.912,1.767620490926767e+18,23.71976708984375,-0.0323758572340011,0.1130100712180137,-1.7647897005081177
2026-01-05 13:41:30.945,1.7676204909668536e+18,23.759853515625,-0.0610865242779254,0.6420193910598755,-1.874134540557861
2026-01-05 13:41:30.978,1.767620491006933e+18,23.79993310546875,-0.043065999634563895,0.9920451641082764,-2.083050489425659
2026-01-05 13:41:31.011,1.767620491027014e+18,23.820013916015625,-0.043065999634563895,1.0739010572433472,-2.3573288917541504
2026-01-05 13:41:31.044,1.7676204910570644e+18,23.850064453124997,-0.043065999634563895,1.0739010572433472,-2.3573288917541504
2026-01-05 13:41:31.077,1.7676204910871127e+18,23.88011279296875,-0.043065999634563895,1.0739010572433472,-2.3573288917541504
2026-01-05 13:41:31.110,1.767620491127199e+18,23.920198974609374,-0.043065999634563895,0.8991936445236206,-2.224160432815552
2026-01-05 13:41:31.143,1.767620491167274e+18,23.96027392578125,-0.32620204985141754,0.5766568183898926,-2.160630464553833
2026-01-05 13:41:31.176,1.7676204912073518e+18,24.000351806640627,-0.32620204985141754,0.4593706727027893,-1.7318029403686523
2026-01-05 13:41:31.209,1.7676204912274355e+18,24.020435546875,-0.32620204985141754,0.4593706727027893,-1.4682146310806274
2026-01-05 13:41:31.242,1.7676204912475192e+18,24.040519287109376,-0.3170390725135803,0.4593706727027893,-1.2046263217926023
2026-01-05 13:41:31.275,1.7676204912876247e+18,24.080624755859372,-0.2913827300071716,0.3784310221672058,-0.8668177723884583
2026-01-05 13:41:31.308,1.7676204913277248e+18,24.120724853515625,-0.2693915665149688,0.3402519524097442,-0.5106833577156067
2026-01-05 13:41:31.341,1.7676204913678129e+18,24.160812744140625,-0.25931225532829755,0.3402519524097442,-0.4593706727027893
2026-01-05 13:41:31.374,1.7676204913878628e+18,24.1808627486677,-0.2492330223321914,0.15699166223305325,-0.4593706727027893
2026-01-05 13:41:31.407,1.7676204914079127e+18,24.20091259765625,-0.2492330223321914,0.1295034289360046,-0.4392121136188507
2026-01-05 13:41:31.440,1.7676204914480225e+18,24.2410224609375,-0.2437352389097213,0.1295034289360046,-0.4489859640598297
2026-01-05 13:41:31.473,1.7676204914881285e+18,24.28112841796875,-0.1942551434040069,0.1295034289360046,-0.4593706727027893
2026-01-05 13:41:31.506,1.767620491528238e+18,24.32123803710937,-0.1624901592731475,0.1295034289360046,-0.4489859640598297
2026-01-05 13:41:31.539,1.7676204915683415e+18,24.361341552734373,-0.1624901592731475,0.1295034289360046,-0.4392121136188507
2026-01-05 13:41:31.572,1.767620491588398e+18,24.38139794921875,-0.14202617108821863,-0.29688052088022243,-0.2070833165198565
2026-01-05 13:41:31.605,1.7676204916084544e+18,24.40145434570313,-0.1215621829032898,-0.675616979598999,0.051312681287527
2026-01-05 13:41:31.638,1.7676204916485332e+18,24.441533203125,0.0714712366461753,-0.675616979598999,0.675006091594696
2026-01-05 13:41:31.671,1.7676204916886336e+18,24.481633544921877,0.1282816976308822,-0.675616979598999,2.043955087661743
2026-01-05 13:41:31.704,1.7676204917187077e+18,24.511707641601564,0.5388510853313491,-0.675616979598999,2.072360166998412
2026-01-05 13:41:31.737,1.767620491768812e+18,24.56181201171875,0.5388510853313491,-0.7024950385093689,2.1007654666900635
2026-01-05 13:41:31.770,1.7676204917888463e+18,24.581846357837748,0.5493715241747412,-1.0173924301326283,2.1007654666900635
2026-01-05 13:41:31.803,1.767620491808881e+18,24.601880859375,0.5388510853313491,-1.952936172485352,2.1007654666900635
2026-01-05 13:41:31.836,1.7676204918489915e+18,24.641991455078124,0.5283305648746972,-1.9992746112092585,2.213164806365967
2026-01-05 13:41:31.869,1.767620491889103e+18,24.68210302734375,0.5178100444180455,-2.022443830571212,2.596788167953491
2026-01-05 13:41:31.902,1.7676204919291927e+18,24.722192626953124,,-2.045613049933165,2.596788167953491
2026-01-05 13:41:31.935,1.7676204919492416e+18,24.742241577148437,,-2.068782449032441,2.596788167953491
2026-01-05 13:41:31.968,1.7676204919692905e+18,24.76229052734375,,-2.1846287255795307,2.539977788925171
2026-01-05 13:41:32.001,1.7676204920093837e+18,24.8023837890625,,-1.9816468358039858,2.0415115356445312
2026-01-05 13:41:32.034,1.7676204920494707e+18,24.842470703125,,-1.6859880685806274,1.3145819902420044
2026-01-05 13:41:32.067,1.7676204920895936e+18,24.882593505859376,,-1.5750395131938677,0.6762278079986572
2026-01-05 13:41:32.100,1.7676204921196867e+18,24.9126865234375,,-1.5448782444000244,0.3090978115797043
2026-01-05 13:41:32.133,1.7676204921447427e+18,24.937742456524102,,-1.4640909578071082,0.024435707896764414
2026-01-05 13:41:32.166,1.7676204921697987e+18,24.962798583984377,,-1.3833042979240417,-0.2602286040782928
2026-01-05 13:41:32.199,1.767620492209908e+18,25.002907958984373,,-1.256549835205078,-0.2602286040782928
2026-01-05 13:41:32.232,1.7676204922500262e+18,25.043026123046875,0.2021963894367218,-0.6023131608963013,-0.5674937963485718
2026-01-05 13:41:32.265,1.7676204922901059e+18,25.08310595703125,0.21609363134869322,0.040010556987906176,-0.769690215587616
2026-01-05 13:41:32.298,1.7676204923302175e+18,25.123217529296877,0.22999087326066464,0.040010556987906176,-0.769690215587616
2026-01-05 13:41:32.331,1.7676204923502628e+18,25.143262895134082,0.24388800736435637,0.040010556987906176,-0.7703018604344803
2026-01-05 13:41:32.364,1.767620492370308e+18,25.16330810546875,0.22999087326066464,0.040010556987906176,-0.9731083512306212
2026-01-05 13:41:32.397,1.7676204924103852e+18,25.20338525390625,0.22999087326066464,0.040010556987906176,-1.4214833974838257
2026-01-05 13:41:32.430,1.7676204924504773e+18,25.243477294921878,-0.280998021364212,-0.0403171069920063,-1.4886785745620728
2026-01-05 13:41:32.463,1.767620492480574e+18,25.273573974609377,-0.4688390642404556,-0.0403171069920063,-1.5949691534042358
2026-01-05 13:41:32.496,1.7676204925056328e+18,25.298632690429688,-0.4688390642404556,-0.32849279372021556,-1.6050484478473663
2026-01-05 13:41:32.529,1.7676204925306913e+18,25.32369140625,-0.4688390642404556,-0.8051204085350037,-1.6151277422904968
2026-01-05 13:41:32.562,1.7676204925707942e+18,25.363794189453124,-0.119118720293045,-1.82098925113678,-1.6050484478473663
2026-01-05 13:41:32.595,1.7676204926108948e+18,25.403894775390626,-0.0940732508897781,-1.8684333831009357,-1.5949691534042358
2026-01-05 13:41:32.628,1.7676204926509942e+18,25.443994140625,-0.0940732508897781,-1.8921552650583602,-1.3310753107070925
2026-01-05 13:41:32.661,1.7676204926910886e+18,25.48408862304688,-0.0940732508897781,-1.9158771470157847,-1.1355985403060913
2026-01-05 13:41:32.694,1.7676204927111465e+18,25.504146440104254,-0.10934494026323589,-1.963320910930634,-0.9367611146377146
2026-01-05 13:41:32.727,1.767620492731204e+18,25.5242041015625,-0.10934494026323589,-1.963320910930634,-0.7379252314567566
2026-01-05 13:41:32.760,1.7676204927712978e+18,25.5642978515625,-0.10934494026323589,-1.8777997493743896,-0.5119050741195679
2026-01-05 13:41:32.793,1.7676204928114015e+18,25.6044013671875,-0.0219911485910415,-1.9065104126930237,-0.1948660165071487
2026-01-05 13:41:32.826,1.7676204928515116e+18,25.644511474609374,0.07116580009460445,-1.9352210760116575,-0.1600466966629028
2026-01-05 13:41:32.859,1.767620492891616e+18,25.68461596679688,0.07116580009460445,-1.9352210760116575,0.167377084493637
2026-01-05 13:41:32.892,1.7676204929116616e+18,25.704661621093752,0.07116580009460445,-1.9352210760116575,0.4291328340768814
2026-01-05 13:41:32.925,1.7676204929317074e+18,25.724707275390625,0.0604756586253643,-1.9352210760116575,0.6908885836601257
2026-01-05 13:41:32.958,1.7676204929718026e+18,25.764802734375,0.0604756586253643,-1.878410577774048,1.2596040964126587
2026-01-05 13:41:32.991,1.7676204930118963e+18,25.80489624023437,0.0604756586253643,-1.8374826908111568,2.163073778152466
2026-01-05 13:41:33.024,1.7676204930519862e+18,25.844986083984374,0.4312708675861358,-1.7470746040344238,2.8374691009521484
2026-01-05 13:41:33.057,1.7676204930720366e+18,25.86503662109375,0.5791002660989761,-1.6899586915969846,2.869844913482666
2026-01-05 13:41:33.090,1.767620493092087e+18,25.885087158203124,0.7149741365737333,-1.5424346923828125,2.869844913482666
2026-01-05 13:41:33.123,1.7676204931321725e+18,25.925172607421874,0.7149741365737333,-1.470963478088379,2.869844913482666
2026-01-05 13:41:33.156,1.767620493172247e+18,25.9652470703125,0.7179630069900373,-1.359175205230713,1.852143406867981
2026-01-05 13:41:33.189,1.7676204932123402e+18,26.00534033203125,0.7149741365737333,-1.217454433441162,0.8484918475151062
2026-01-05 13:41:33.222,1.7676204932424197e+18,26.035419555664063,0.7119852661574293,-1.0580185651779177,0.39736784994602203
2026-01-05 13:41:33.255,1.7676204932674737e+18,26.060473571777344,0.697040890889476,-1.0580185651779177,0.20234911656007168
2026-01-05 13:41:33.288,1.7676204932925276e+18,26.085527587890624,0.5261076986789703,-1.0317513942718506,0.0073303831741213
2026-01-05 13:41:33.321,1.7676204933426555e+18,26.135655517578126,0.3671300113201141,-1.0317513942718506,-0.31856622546911234
2026-01-05 13:41:33.354,1.7676204933726897e+18,26.165689697265623,0.21670444542542094,-1.0317513942718506,-0.4966334402561188
2026-01-05 13:41:33.387,1.767620493412763e+18,26.205762939453123,0.16294792284291815,-0.484416127204895,-0.6737843751907349
2026-01-05 13:41:33.420,1.7676204934428467e+18,26.2358466796875,0.16294792284291815,-0.19669860601425168,-1.1160508096218107
2026-01-05 13:41:33.453,1.767620493467882e+18,26.260881982971306,0.16294792284291815,-0.19669860601425168,-1.1160508096218107
2026-01-05 13:41:33.486,1.7676204934929175e+18,26.28591748046875,0.16294792284291815,-0.19669860601425168,-1.1160508096218107
2026-01-05 13:41:33.519,1.7676204935330004e+18,26.32600048828125,0.16294792284291815,-0.3029891550540924,-1.006095051765442
2026-01-05 13:41:33.552,1.7676204935730962e+18,26.36609619140625,0.1600466966629028,-0.3029891550540924,-0.988990843296051
2026-01-05 13:41:33.585,1.7676204936131963e+18,26.4061962890625,0.0317649915814399,-0.3029891550540924,-0.9816604256629944
2026-01-05 13:41:33.618,1.7676204936332462e+18,26.42624626012089,-0.11820184757409784,-0.18478777493888232,-0.7605280810757388
2026-01-05 13:41:33.651,1.7676204936532964e+18,26.44629638671875,-0.2681698501110077,0.0818559452891349,-0.5393940210342407
2026-01-05 13:41:33.684,1.767620493693421e+18,26.486421142578124,-0.2681698501110077,0.0818559452891349,-0.4068362414836883
2026-01-05 13:41:33.717,1.7676204937335117e+18,26.52651171875,-0.2681698501110077,0.0818559452891349,-0.3952298164367676
2026-01-05 13:41:33.750,1.7676204937736118e+18,26.56661181640625,0.0464257597923278,0.3787364661693573,-0.2791654169559479
2026-01-05 13:41:33.783,1.767620493803691e+18,26.596691162109373,0.1795943826436996,0.3787364661693573,0.2290744632482528
2026-01-05 13:41:33.816,1.76762049382875e+18,26.62175012207031,0.1795943826436996,-0.2513710483908653,0.36193764954805374
2026-01-05 13:41:33.849,1.7676204938538092e+18,26.64680908203125,0.1795943826436996,0.1032362282276153,0.36193764954805374
2026-01-05 13:41:33.882,1.7676204938938895e+18,26.6868896484375,0.1795943826436996,0.1032362282276153,0.2290744632482528
2026-01-05 13:41:33.915,1.7676204939339732e+18,26.72697314453125,0.1295034289360046,-0.218079227778659,-0.7189884185791016
2026-01-05 13:41:33.948,1.767620493974046e+18,26.7670458984375,0.051924265885483184,-0.218079227778659,-1.0421360731124878
2026-01-05 13:41:33.981,1.7676204939941e+18,26.787099897800577,0.051924265885483184,-0.1325577646493911,-1.0421360731124878
2026-01-05 13:41:34.014,1.767620494014154e+18,26.807154052734376,-0.1343903541564941,-0.1325577646493911,-1.0421360731124878
2026-01-05 13:41:34.047,1.7676204940542546e+18,26.847254638671878,-0.1343903541564941,-0.130725160241127,-0.9529497623443604
2026-01-05 13:41:34.080,1.7676204940943624e+18,26.8873623046875,-0.1343903541564941,-0.1240056455135345,-0.7580837607383728
2026-01-05 13:41:34.113,1.7676204941344625e+18,26.92746240234375,-0.0940732508897781,-0.0897971913218498,-0.3781255781650543
2026-01-05 13:41:34.146,1.7676204941745577e+18,26.9675576171875,0.0116064399480819,-0.0641408488154411,0.0109955742955207
2026-01-05 13:41:34.179,1.767620494194605e+18,26.987605058228066,0.027488997343514582,-0.0641408488154411,0.07880187630577083
2026-01-05 13:41:34.212,1.7676204942146524e+18,27.00765234375,0.0433714315295219,-0.0641408488154411,0.1466076523065567
2026-01-05 13:41:34.245,1.767620494264786e+18,27.05778576660156,0.1466076616197824,0.0699445926007313,0.8420777320861816
2026-01-05 13:41:34.278,1.7676204942948442e+18,27.08784423828125,0.1698205322027206,-0.09896016865968701,0.9095783233642578
2026-01-05 13:41:34.311,1.767620494334933e+18,27.12793310546875,0.1698205322027206,-0.1313360333442688,0.9095783233642578
2026-01-05 13:41:34.344,1.7676204943650156e+18,27.158015380859375,0.1698205322027206,-0.09896016865968701,0.9095783233642578
2026-01-05 13:41:34.377,1.7676204943951158e+18,27.18811572265625,0.1539380401372909,0.1795943826436996,0.8222246170043945
2026-01-05 13:41:34.410,1.7676204944151158e+18,27.20811572265625,0.0024434609804302,0.1795943826436996,0.8222246170043945
2026-01-05 13:41:34.443,1.767620494455194e+18,27.24819409179688,0.0024434609804302,0.1795943826436996,0.8222246170043945
2026-01-05 13:41:34.476,1.7676204944953016e+18,27.288301513671875,0.0024434609804302,0.1795943826436996,1.5754214525222778
2026-01-05 13:41:34.509,1.7676204945353774e+18,27.32837744140625,0.3622430860996246,-0.0122173046693205,2.7812695503234863
2026-01-05 13:41:34.542,1.7676204945554125e+18,27.34841243122665,0.5803228283830768,-0.4379920296030103,2.7812695503234863
2026-01-05 13:41:34.575,1.7676204945754473e+18,27.368447265625,0.5803228283830768,-0.4379920296030103,2.7812695503234863
2026-01-05 13:41:34.608,1.7676204946156e+18,27.40860009765625,0.6780604124069214,-0.6798930168151855,1.7440202236175537
2026-01-05 13:41:34.641,1.767620494655684e+18,27.44868408203125,0.6780604124069214,-0.6798930168151855,0.3219259977340698
2026-01-05 13:41:34.674,1.767620494695758e+18,27.488758056640624,0.5839871764183044,-0.4117231667041778,-0.3860668241977691
2026-01-05 13:41:34.707,1.7676204947358254e+18,27.52882543945313,0.26236662454903126,-0.0940732508897781,-1.119105100631714
2026-01-05 13:41:34.740,1.767620494755862e+18,27.548862182617192,0.26236662454903126,0.07452555745840074,-1.1948524117469788
2026-01-05 13:41:34.773,1.767620494775899e+18,27.56889892578125,-0.0592539273202419,0.2431243658065796,-1.2705997228622437
2026-01-05 13:41:34.806,1.7676204948159985e+18,27.60899853515625,-0.3872885704040527,0.2461786866188049,-1.709811806678772
2026-01-05 13:41:34.839,1.7676204948560694e+18,27.6490693359375,-0.5943718552589417,0.3371976017951965,-1.709811806678772
2026-01-05 13:41:34.872,1.7676204948961828e+18,27.689182861328124,-0.5943718552589417,0.4825835525989532,-1.709811806678772
2026-01-05 13:41:34.905,1.7676204949362578e+18,27.7292578125,-0.5943718552589417,0.3677408695220947,-1.5778648853302002
2026-01-05 13:41:34.938,1.7676204949563067e+18,27.749306806999677,-0.31581839744594215,0.371406078338623,-1.1447631230512463
2026-01-05 13:41:34.971,1.7676204949763558e+18,27.76935595703125,-0.0372627787292003,0.371406078338623,-0.7116580009460449
2026-01-05 13:41:35.004,1.7676204950164598e+18,27.80945971679688,0.0250454749912023,0.371406078338623,-0.3249803185462951
2026-01-05 13:41:35.037,1.7676204950565745e+18,27.849574462890622,0.11362093221396205,0.3677408695220947,0.1795943826436996
2026-01-05 13:41:35.070,1.7676204950966582e+18,27.889658203125,0.1734857261180877,0.0613919496536256,0.2779437005519867
2026-01-05 13:41:35.103,1.7676204951166996e+18,27.909699829101562,0.1759291887283325,0.0613919496536256,0.7809912413358688
2026-01-05 13:41:35.136,1.7676204951367414e+18,27.92974145507813,0.11362093221396205,0.817337691783905,0.7809912413358688
2026-01-05 13:41:35.169,1.767620495176828e+18,27.969827880859373,0.11362093221396205,0.0613919496536256,0.7809912413358688
2026-01-05 13:41:35.202,1.7676204952169472e+18,28.009947265625,0.1081231459975242,-0.2687807083129883,-0.6811147332191467
2026-01-05 13:41:35.235,1.767620495257042e+18,28.0500419921875,-0.0061086523346602,-0.2687807083129883,-0.8888089060783386
2026-01-05 13:41:35.268,1.767620495297165e+18,28.0901650390625,-0.1136209368705749,-0.5965099036693573,-1.094059705734253
2026-01-05 13:41:35.301,1.7676204953222282e+18,28.1152281742696,-0.1357647178462061,-0.5965099036693573,-1.0983357429504397
2026-01-05 13:41:35.334,1.7676204953472916e+18,28.140291503906248,-0.15790867060422895,-0.5965099036693573,-1.0983357429504397
2026-01-05 13:41:35.367,1.767620495377342e+18,28.170342041015623,-0.15790867060422895,-0.4227187633514404,-1.0983357429504397
2026-01-05 13:41:35.400,1.7676204954174103e+18,28.210410400390625,-0.15790867060422895,-0.2926044464111328,-0.5650503635406494
2026-01-05 13:41:35.433,1.767620495457484e+18,28.250484130859373,-0.1154535338282585,-0.2064724564552307,0.152105450630188
2026-01-05 13:41:35.466,1.7676204954975578e+18,28.290557861328125,-0.040011381543322386,0.1966986060142517,0.5094616413116455
2026-01-05 13:41:35.499,1.7676204955176159e+18,28.31061604459786,-0.0329867228865623,0.1966986060142517,0.6010917701017827
2026-01-05 13:41:35.532,1.767620495537674e+18,28.330674072265627,0.0354301854968071,0.1966986060142517,0.6010917701017827
2026-01-05 13:41:35.565,1.767620495577763e+18,28.37076318359375,0.0427605658769607,0.2846632003784179,0.6010917701017827
2026-01-05 13:41:35.598,1.7676204956178616e+18,28.410861572265624,0.0525344125926494,0.1545489132404327,0.5155702829360962
2026-01-05 13:41:35.631,1.767620495657942e+18,28.45094189453125,0.1539380401372909,0.0659734457731247,0.5155702829360962
2026-01-05 13:41:35.664,1.7676204956780273e+18,28.47102734375,0.1539380401372909,0.0659734457731247,0.5155702829360962
2026-01-05 13:41:35.697,1.767620495698019e+18,28.49101904296875,0.2351831197738647,0.0659734457731247,0.797789990901947
2026-01-05 13:41:35.730,1.767620495738092e+18,28.531092041015626,0.5815436840057373,-0.2156354337930679,1.938886284828186
2026-01-05 13:41:35.763,1.7676204957781978e+18,28.57119775390625,0.5815436840057373,-0.3405573740601539,1.938886284828186
2026-01-05 13:41:35.796,1.767620495818277e+18,28.61127709960937,0.5815436840057373,-0.4080579876899719,1.938886284828186
2026-01-05 13:41:35.829,1.7676204958483912e+18,28.64139099121094,0.2101376391947269,-0.4550946056842804,0.8891143798828125
2026-01-05 13:41:35.862,1.767620495873434e+18,28.66643399606172,0.1646280032226886,-0.4624249935150146,0.27687230160344345
2026-01-05 13:41:35.895,1.7676204958984768e+18,28.691476806640622,0.119118720293045,-0.4624249935150146,-0.3353650271892547
2026-01-05 13:41:35.928,1.7676204959385656e+18,28.73156567382813,0.0244346093386411,-0.4624249935150146,-0.7281513810157776
2026-01-05 13:41:35.961,1.7676204959786596e+18,28.77165966796875,-0.2571742534637451,-0.3933972120285034,-1.2528846263885498
2026-01-05 13:41:35.994,1.767620496018737e+18,28.81173681640625,-0.5729916095733643,0.0690277740359306,-1.7996090650558472
2026-01-05 13:41:36.027,1.7676204960588155e+18,28.8518154296875,-0.5729916095733643,0.2003637999296188,-2.213775634765625
2026-01-05 13:41:36.060,1.767620496078873e+18,28.871873046875,-0.5729916095733643,0.2003637999296188,-2.213775634765625
2026-01-05 13:41:36.093,1.7676204960989307e+18,28.8919306640625,-0.5338962078094482,0.2730567753314972,-2.213775634765625
2026-01-05 13:41:36.126,1.7676204961390136e+18,28.932013671875,-0.0916297882795333,0.2663372457027435,-1.0891727209091189
2026-01-05 13:41:36.159,1.7676204961790991e+18,28.97209912109375,0.2174680233001709,0.2003637999296188,-0.3494149148464203
2026-01-05 13:41:36.192,1.7676204962191939e+18,29.01219384765625,0.3176499307155609,0.10781771503388879,-0.323147714138031
2026-01-05 13:41:36.225,1.7676204962392448e+18,29.03224462890625,0.3176499307155609,0.2663372457027435,0.09560039639472961
2026-01-05 13:41:36.258,1.7676204962592955e+18,29.05229541015625,0.3176499307155609,0.2351831197738647,0.5143485069274902
2026-01-05 13:41:36.291,1.767620496299378e+18,29.0923779296875,-0.0183259565383195,0.1661553531885147,0.5571091175079346
2026-01-05 13:41:36.324,1.7676204963395034e+18,29.13250341796875,-0.1331686228513717,0.2351831197738647,0.5571091175079346
2026-01-05 13:41:36.357,1.7676204963795853e+18,29.172585205078125,-0.1331686228513717,0.2880229651927948,0.5571091175079346
2026-01-05 13:41:36.390,1.7676204964197023e+18,29.212702392578127,-0.1331686228513717,0.2541199326515198,-0.3781255781650543
2026-01-05 13:41:36.423,1.7676204964397427e+18,29.232742797851564,-0.1331686228513717,0.2541199326515198,-0.681420162320137
2026-01-05 13:41:36.456,1.7676204964597832e+18,29.252783203125,-0.1637118905782699,0.2541199326515198,-0.8723155856132507
2026-01-05 13:41:36.489,1.7676204964999002e+18,29.29290014648437,-0.12431107775773849,-0.0256563406437635,-0.8723155856132507
2026-01-05 13:41:36.522,1.7676204965399808e+18,29.332980712890624,-0.053145275334827595,-0.0317649915814399,-0.8723155856132507
2026-01-05 13:41:36.555,1.7676204965700623e+18,29.363062255859376,-0.053145275334827595,-0.0510072465986013,-0.5830708891153336
2026-01-05 13:41:36.588,1.7676204966101453e+18,29.40314538574219,0.20861048251390454,-0.1295034326612949,-0.08827003091573715
2026-01-05 13:41:36.621,1.7676204966352013e+18,29.42820125779387,0.20861048251390454,-0.1295034326612949,0.3492604994792256
2026-01-05 13:41:36.654,1.7676204966602573e+18,29.45325732421875,0.20861048251390454,-0.0510072465986013,0.452040284872055
2026-01-05 13:41:36.687,1.7676204967003476e+18,29.49334765625,0.1985312104225158,0.1887573599815368,0.7000515460968018
2026-01-05 13:41:36.720,1.767620496740426e+18,29.533426025390625,0.1985312104225158,0.338113339579203,0.7354817390441895
2026-01-05 13:41:36.753,1.7676204967805125e+18,29.57351245117188,0.1985312104225158,0.4874704778194427,0.7354817390441895
2026-01-05 13:41:36.786,1.7676204968005576e+18,29.593557539436706,0.2443459194058194,0.338113339579203,1.181717095438297
2026-01-05 13:41:36.819,1.767620496820603e+18,29.613602783203124,0.290160983800888,0.1887573599815368,1.6279559135437012
2026-01-05 13:41:36.852,1.7676204968606828e+18,29.653682861328125,0.4575380682945251,0.0812450796365737,1.6279559135437012
2026-01-05 13:41:36.885,1.7676204969007926e+18,29.69379248046875,0.4575380682945251,-0.1734857261180877,1.6279559135437012
2026-01-05 13:41:36.918,1.767620496940876e+18,29.7338759765625,0.4575380682945251,-0.2419026345014572,1.563814997673035
2026-01-05 13:41:36.951,1.7676204969809467e+18,29.77394677734375,0.2892446964979172,-0.3019201457500458,-0.0568104684352874
2026-01-05 13:41:36.984,1.7676204970060052e+18,29.799005065917967,0.17760907113552094,-0.3019201457500458,-0.5337435156106949
2026-01-05 13:41:37.017,1.7676204970310636e+18,29.82406335449219,0.0659734457731247,-0.3019201457500458,-1.0106765627861023
2026-01-05 13:41:37.050,1.7676204970610982e+18,29.85409814453125,0.0390953756868839,-0.3019201457500458,-1.7061465978622437
2026-01-05 13:41:37.083,1.7676204971011886e+18,29.894188720703124,-0.5723807215690613,-0.2987131178379059,-2.3347270488739014
2026-01-05 13:41:37.116,1.7676204971412808e+18,29.93428076171875,-0.5723807215690613,-0.2987131178379059,-2.3347270488739014
2026-01-05 13:41:37.149,1.7676204971813699e+18,29.974369873046875,-0.5723807215690613,-0.2987131178379059,-2.3347270488739014
2026-01-05 13:41:37.182,1.7676204972064535e+18,29.999453527469388,-0.43814193026772524,-0.2461786866188049,-1.974313880899784
2026-01-05 13:41:37.215,1.7676204972315372e+18,30.024536987304685,-0.13713924773037436,-0.23273965716362,-1.3048081398010254
2026-01-05 13:41:37.248,1.7676204972615826e+18,30.05458251953125,0.3249803185462951,-0.0042760567739605,-0.5345070958137512
2026-01-05 13:41:37.281,1.7676204973017093e+18,30.094709228515622,0.3249803185462951,0.2199114859104156,0.3885102868080139
2026-01-05 13:41:37.314,1.7676204973417887e+18,30.13478857421875,0.3249803185462951,1.0760391354560852,1.3900238275527954
2026-01-05 13:41:37.347,1.7676204973668713e+18,30.15987125207498,0.261908065315731,1.0760391354560852,1.4404202699661257
2026-01-05 13:41:37.380,1.7676204973919537e+18,30.184953735351563,0.1566869355738163,1.0760391354560852,1.4404202699661257
2026-01-05 13:41:37.413,1.7676204974220045e+18,30.21500439453125,0.1566869355738163,0.4367686510086059,1.3900238275527954
2026-01-05 13:41:37.446,1.7676204974620874e+18,30.25508740234375,-0.0507018156349659,0.0629191175103187,-0.6047565937042236
2026-01-05 13:41:37.479,1.7676204975021647e+18,30.295164794921877,-0.0959058403968811,-0.0183259565383195,-0.8820894360542297
2026-01-05 13:41:37.512,1.7676204975422508e+18,30.33525073242188,-0.1618792861700058,-0.3127630054950714,-0.9572258591651917
2026-01-05 13:41:37.545,1.7676204975622922e+18,30.355292114257814,-0.1618792861700058,-0.35613444447517395,-0.9572258591651917
2026-01-05 13:41:37.578,1.7676204975823334e+18,30.37533349609375,-0.1618792861700058,-0.35613444447517395,-0.9572258591651917
2026-01-05 13:41:37.611,1.767620497622441e+18,30.41544091796875,-0.1618792861700058,-0.3127630054950714,-0.6383541822433472
2026-01-05 13:41:37.644,1.7676204976625231e+18,30.455523193359376,-0.1197295859456062,-0.2895501255989074,0.107512280344963
2026-01-05 13:41:37.677,1.7676204977025958e+18,30.495595947265624,-0.0494800843298435,0.0,0.646295428276062
2026-01-05 13:41:37.710,1.767620497742668e+18,30.53566796875,-0.0012217304902151,0.0,0.6829473376274109
2026-01-05 13:41:37.743,1.7676204977627244e+18,30.555724365234376,-0.0012217304902151,0.1533271819353103,0.6829473376274109
2026-01-05 13:41:37.776,1.7676204977827807e+18,30.57578076171875,0.03756821196293455,0.1533271819353103,0.6933320462703705
2026-01-05 13:41:37.809,1.767620497822866e+18,30.615865966796875,0.0763581544160842,0.0,0.7037167549133301
2026-01-05 13:41:37.842,1.7676204978629368e+18,30.65593676757813,0.3066543638706207,-0.1533271819353103,1.141707181930542
2026-01-05 13:41:37.875,1.7676204979030044e+18,30.69600439453125,0.7322755689516481,-0.1588249653577804,1.7580702304840088
2026-01-05 13:41:37.908,1.7676204979230546e+18,30.716054687499998,0.7322755689516481,-0.1588249653577804,1.7580702304840088
2026-01-05 13:41:37.941,1.767620497943105e+18,30.73610498046875,0.7322755689516481,-0.16310102492570872,1.7580702304840088
2026-01-05 13:41:37.974,1.767620497993213e+18,30.786213012695313,0.523511528968811,-0.16310102492570872,1.0583240389823914
2026-01-05 13:41:38.007,1.7676204980232476e+18,30.81624755859375,0.5149593949317932,-0.6914994716644287,0.7666358947753906
2026-01-05 13:41:38.040,1.7676204980633203e+18,30.8563203125,0.0280998013913631,-0.6914994716644287,-0.1765400618314743
2026-01-05 13:41:38.073,1.767620498103401e+18,30.89640087890625,-0.2406809031963348,-0.6914994716644287,-0.4880813360214233
2026-01-05 13:41:38.106,1.7676204981234383e+18,30.91643839884106,-0.43524072104360534,-0.591318381011477,-0.7415894271649444
2026-01-05 13:41:38.139,1.767620498143476e+18,30.93647607421875,-0.6298020482063293,-0.3769038617610931,-0.9950994849205016
2026-01-05 13:41:38.172,1.7676204981835802e+18,30.976580078125,-0.6298020482063293,0.1258382350206375,-1.673770785331726
2026-01-05 13:41:38.205,1.7676204982236562e+18,31.01665625,-0.6298020482063293,0.1258382350206375,-1.673770785331726
2026-01-05 13:41:38.238,1.7676204982637322e+18,31.05673217773437,-0.452040284872055,0.1258382350206375,-1.673770785331726
2026-01-05 13:41:38.271,1.767620498303791e+18,31.096791015625,-0.0305432621389627,0.0171042270958423,-1.5375478267669678
2026-01-05 13:41:38.304,1.7676204983238298e+18,31.116829833984376,0.035124751739203944,0.0171042270958423,-0.9703594446182251
2026-01-05 13:41:38.337,1.7676204983438687e+18,31.13686865234375,0.1007927656173706,0.0171042270958423,-0.4031710624694824
2026-01-05 13:41:38.370,1.7676204983839478e+18,31.17694775390625,0.2247984111309051,0.3500257730484009,-0.0403171069920063
2026-01-05 13:41:38.403,1.7676204984240317e+18,31.21703173828125,0.2247984111309051,0.4043927788734436,0.0971275717020034
2026-01-05 13:41:38.436,1.7676204984641037e+18,31.257103759765624,0.2247984111309051,0.6682865619659424,0.8240572214126587
2026-01-05 13:41:38.469,1.767620498484141e+18,31.277141157630595,0.15699263140484343,0.6682865619659424,1.0299195883553942
2026-01-05 13:41:38.502,1.7676204985041787e+18,31.2971787109375,0.1374446749687194,0.6682865619659424,1.0299195883553942
2026-01-05 13:41:38.535,1.7676204985442557e+18,31.337255859375,0.0891863256692886,0.66584312915802,0.8240572214126587
2026-01-05 13:41:38.568,1.767620498584338e+18,31.377337890625,0.0891863256692886,0.3457497358322143,0.3695734739303589
2026-01-05 13:41:38.601,1.7676204986244232e+18,31.417423095703125,0.0482583530247211,0.2492330223321914,-0.452040284872055
2026-01-05 13:41:38.634,1.7676204986545377e+18,31.447537841796873,-0.039401382164276105,-0.1175915524363518,-0.8674286603927612
2026-01-05 13:41:38.667,1.7676204986845937e+18,31.477593866580268,-0.1185078546404838,-0.21166516449030276,-1.0091499222811817
2026-01-05 13:41:38.700,1.7676204987146496e+18,31.50764965820313,-0.1185078546404838,-0.3057380467653274,-1.0091499222811817
2026-01-05 13:41:38.733,1.7676204987446733e+18,31.53767333984375,-0.119118720293045,-0.3057380467653274,-1.0091499222811817
2026-01-05 13:41:38.766,1.7676204987847555e+18,31.57775537109375,-0.119118720293045,-0.3057380467653274,-0.6389650702476501
2026-01-05 13:41:38.799,1.767620498824865e+18,31.617864990234374,-0.1185078546404838,-0.0280998013913631,0.1350012123584747
2026-01-05 13:41:38.832,1.7676204988649434e+18,31.657943359375,-0.0354301854968071,-0.0280998013913631,0.6902777552604675
2026-01-05 13:41:38.865,1.767620498884993e+18,31.677992919921877,0.04948008432984351,-0.0280998013913631,0.7107417285442352
2026-01-05 13:41:38.898,1.7676204989050424e+18,31.69804248046875,0.1007927656173706,0.09987647831439966,0.7312057018280029
2026-01-05 13:41:38.931,1.767620498945114e+18,31.73811401367188,0.1007927656173706,0.09987647831439966,0.7672467231750488
2026-01-05 13:41:38.964,1.7676204989852063e+18,31.778206298828124,0.1007927656173706,0.2064707934702556,0.8552113175392151
2026-01-05 13:41:38.997,1.7676204990252928e+18,31.81829272460937,0.1007927656173706,0.2064707934702556,0.9810495972633362
2026-01-05 13:41:39.030,1.7676204990453468e+18,31.83834687954317,0.1007927656173706,0.2064707934702556,1.4062134723359114
2026-01-05 13:41:39.063,1.7676204990654008e+18,31.85840087890625,0.1912008225917816,-0.1698205322027206,1.8313740491867063
2026-01-05 13:41:39.096,1.7676204991054717e+18,31.8984716796875,0.2486221492290496,-0.2241875380277633,1.8313740491867063
2026-01-05 13:41:39.129,1.7676204991455396e+18,31.93853955078125,0.2486221492290496,-0.5919284224510193,1.8313740491867063
2026-01-05 13:41:39.162,1.7676204991856161e+18,31.9786162109375,0.2486221492290496,-0.5919284224510193,0.8399397134780884
2026-01-05 13:41:39.195,1.7676204992257027e+18,32.01870263671875,0.1850921660661697,-0.5794056951999664,-0.261450320482254
2026-01-05 13:41:39.228,1.767620499245751e+18,32.0387509765625,0.1007927637547254,-0.5794056951999664,-0.5506950169801712
2026-01-05 13:41:39.261,1.7676204992657994e+18,32.05879931640625,0.0164933614432811,-0.5668829679489136,-0.8399397134780884
2026-01-05 13:41:39.294,1.7676204993058762e+18,32.098876220703126,-0.3927863538265228,-0.3530801236629486,-1.1264355182647705
2026-01-05 13:41:39.327,1.767620499345946e+18,32.13894604492187,-0.6010913848876953,0.1789835095405578,-1.6566665172576904
2026-01-05 13:41:39.360,1.767620499386014e+18,32.17901391601563,-0.6010913848876953,0.2406809031963348,-2.157576084136963
2026-01-05 13:41:39.393,1.7676204994060462e+18,32.199046020507815,-0.6010913848876953,0.2406809031963348,-2.157576084136963
2026-01-05 13:41:39.426,1.7676204994260782e+18,32.219078125,-0.4636467099189758,0.3738495260477066,-2.157576084136963
2026-01-05 13:41:39.459,1.7676204994661524e+18,32.25915234375,-0.4471533596515655,0.3738495260477066,-1.3365731239318848
2026-01-05 13:41:39.492,1.7676204995062346e+18,32.29923461914063,-0.1111774742603302,0.2406809031963348,-0.6285803318023682
2026-01-05 13:41:39.525,1.7676204995463306e+18,32.33933056640625,0.0629191175103187,0.119118720293045,-0.3854559659957886
2026-01-05 13:41:39.558,1.7676204995864105e+18,32.379410400390626,0.2339613884687423,0.0928515195846557,-0.3335324227809906
2026-01-05 13:41:39.591,1.7676204996064538e+18,32.39945361328125,0.2339613884687423,0.0928515195846557,-0.3115412890911102
