datetime,time,seconds_elapsed,z,y,x
2026-01-05 14:56:44.520,1.7676250045379748e+18,0.089974853515625,0.2107485085725784,-0.0036651915870606,0.6340781450271606
2026-01-05 14:56:44.553,1.7676250045577052e+18,0.109705322265625,0.3026837334036827,0.01252273772843185,0.6142250001430511
2026-01-05 14:56:44.586,1.7676250045977807e+18,0.14978076171875,0.394618958234787,0.0287106670439243,0.5943718552589417
2026-01-05 14:56:44.619,1.7676250046378706e+18,0.18987060546875,0.394618958234787,0.3915646076202392,0.5943718552589417
2026-01-05 14:56:44.652,1.7676250046679583e+18,0.2199581298828125,0.394618958234787,0.7177666425704956,0.15882496163249016
2026-01-05 14:56:44.685,1.7676250046929912e+18,0.24499105280475744,0.3054333095326733,0.812145688635434,-0.2605324009899381
2026-01-05 14:56:44.718,1.7676250047180242e+18,0.270024169921875,0.3054333095326733,0.812145688635434,-0.6200281977653503
2026-01-05 14:56:44.751,1.7676250047581064e+18,0.3101064453125,0.2492330223321914,0.7177666425704956,-0.6798930168151855
2026-01-05 14:56:44.784,1.767625004798194e+18,0.35019384765625,0.2492330223321914,0.543059229850769,-0.7422012686729431
2026-01-05 14:56:44.817,1.767625004838271e+18,0.39027099609375,0.3903428912162781,0.45020805009209586,-0.8454375267028809
2026-01-05 14:56:44.850,1.7676250048783475e+18,0.430347412109375,0.4783074855804443,0.45020805009209586,-1.1337659358978271
2026-01-05 14:56:44.883,1.7676250048983877e+18,0.45038777304435684,0.6041462236011749,0.4269948005676269,-1.1725557133996587
2026-01-05 14:56:44.916,1.767625004918428e+18,0.470427978515625,0.6951646208763123,0.45020805009209586,-1.2113457918167114
2026-01-05 14:56:44.949,1.7676250049584927e+18,0.51049267578125,0.7088328128566742,0.5455026626586914,-1.2767083644866943
2026-01-05 14:56:44.982,1.76762500499858e+18,0.550580078125,0.7225008988056183,0.6701191663742065,-1.737911581993103
2026-01-05 14:56:45.015,1.7676250050286556e+18,0.58065576171875,0.7156668558311463,1.0433578491210938,-1.9532415866851804
2026-01-05 14:56:45.048,1.767625005078737e+18,0.63073681640625,0.7225008988056183,1.056186020374298,-2.129476308822632
2026-01-05 14:56:45.081,1.767625005098786e+18,0.6507860107421874,0.7293349417800903,1.056186020374298,-2.2241604328155518
2026-01-05 14:56:45.114,1.7676250051188352e+18,0.670835205078125,0.7361689847545624,1.416596531867981,-2.2241604328155518
2026-01-05 14:56:45.147,1.767625005168948e+18,0.7209478759765625,0.8045095205307007,1.5131132006645203,-2.2241604328155518
2026-01-05 14:56:45.180,1.7676250051989678e+18,0.7509677734375,0.674089789390564,1.858252048492432,-1.8008307218551636
2026-01-05 14:56:45.213,1.7676250052390444e+18,0.79104443359375,0.5436700582504272,2.07327663898468,-1.5467108488082886
2026-01-05 14:56:45.246,1.7676250052591288e+18,0.81112890625,0.44135013222694397,2.07327663898468,-1.227839112281799
2026-01-05 14:56:45.279,1.7676250052891853e+18,0.8411854248046875,0.3390302062034607,2.07327663898468,-0.8469646871089935
2026-01-05 14:56:45.312,1.767625005329275e+18,0.8812747802734375,0.2739730626344681,1.4566081762313843,-0.8158105313777924
2026-01-05 14:56:45.345,1.767625005359315e+18,0.91131494140625,0.1246165111660957,1.4566081762313843,-0.8057312369346619
2026-01-05 14:56:45.378,1.767625005399384e+18,0.951384033203125,-0.0018325957935303,1.4566081762313843,-0.2864958047866821
2026-01-05 14:56:45.411,1.767625005439437e+18,0.99143701171875,-0.04642575921025125,1.189354658126831,-0.0146607663482427
2026-01-05 14:56:45.444,1.7676250054594673e+18,1.01146728515625,-0.0910189226269722,1.189354658126831,0.047342055477201946
2026-01-05 14:56:45.477,1.7676250054794975e+18,1.03149755859375,-0.0910189226269722,1.189354658126831,0.047342055477201946
2026-01-05 14:56:45.510,1.7676250055195666e+18,1.071566650390625,-0.6010913848876953,0.6023131608963013,-0.0146607663482427
2026-01-05 14:56:45.543,1.7676250055596242e+18,1.111624267578125,-0.6879564531279133,0.5601634383201599,-0.0146607663482427
2026-01-05 14:56:45.576,1.7676250055896945e+18,1.1416944580078126,-0.6879564531279133,0.5549710892375787,-0.0604756586253643
2026-01-05 14:56:45.609,1.7676250056397545e+18,1.19175439453125,-0.6880786275589859,0.5549710892375787,-0.10720627242947622
2026-01-05 14:56:45.642,1.7676250056597786e+18,1.2117784867837682,-0.6878342786968408,0.5497786998748779,-0.1795943826436996
2026-01-05 14:56:45.675,1.7676250056798026e+18,1.231802734375,-0.6874677544558441,0.5497786998748779,-0.2559525370597839
2026-01-05 14:56:45.708,1.767625005729897e+18,1.2818970947265624,-0.5305364727973938,0.5442809462547302,-0.2559525370597839
2026-01-05 14:56:45.741,1.7676250057599396e+18,1.311939697265625,-0.21013765037059778,0.4795292317867279,-0.2559525370597839
2026-01-05 14:56:45.774,1.767625005800002e+18,1.352001953125,-0.2284636050462722,0.2877175211906433,-0.0745255574584007
2026-01-05 14:56:45.807,1.7676250058200742e+18,1.37207421875,-0.2284636050462722,0.1545489132404327,0.03359758853912356
2026-01-05 14:56:45.840,1.7676250058400637e+18,1.392063720703125,-0.2284636050462722,0.0195476878434419,0.03359758853912356
2026-01-05 14:56:45.873,1.76762500589016e+18,1.4421602783203125,-0.22855523437946276,-0.2125810980796814,0.03359758853912356
2026-01-05 14:56:45.906,1.7676250059201733e+18,1.47217333984375,-0.22860104904605805,-0.2730567753314972,-0.0134390350431203
2026-01-05 14:56:45.939,1.7676250059602378e+18,1.51223779296875,-0.22864686371265336,-0.413555771112442,-0.1716531366109848
2026-01-05 14:56:45.972,1.7676250060003052e+18,1.55230517578125,-0.2286926787346601,-0.413555771112442,-0.3145956099033355
2026-01-05 14:56:46.005,1.7676250060203796e+18,1.572379638671875,-0.2287384937566668,-0.6200281977653503,-0.4398229718208313
2026-01-05 14:56:46.038,1.767625006040369e+18,1.592368896484375,,-0.6200281977653503,-0.8087855577468872
2026-01-05 14:56:46.071,1.7676250060804388e+18,1.632438720703125,,-0.7232644557952881,-0.8087855577468872
2026-01-05 14:56:46.104,1.767625006120506e+18,1.672506103515625,-0.2293798997998237,-0.7232644557952881,-0.8087855577468872
2026-01-05 14:56:46.137,1.767625006150573e+18,1.7025731201171874,-0.23075434938073155,-0.2577851414680481,-0.30115656554698944
2026-01-05 14:56:46.170,1.767625006190633e+18,1.7426329345703124,-0.2293798997998237,-0.22449297457933426,-0.24556783586740494
2026-01-05 14:56:46.203,1.767625006220699e+18,1.772698974609375,-0.2167044468224048,-0.22449297457933426,0.0696386396884918
2026-01-05 14:56:46.236,1.7676250062407017e+18,1.79270166015625,-0.2040289938449859,-0.22449297457933426,0.0696386396884918
2026-01-05 14:56:46.269,1.7676250062807805e+18,1.832780517578125,-0.2040289938449859,-0.2577851414680481,0.2394591718912124
2026-01-05 14:56:46.302,1.7676250063208504e+18,1.872850341796875,-0.2040289938449859,-0.4703662395477295,0.2394591718912124
2026-01-05 14:56:46.335,1.7676250063509187e+18,1.902918701171875,0.0207694191485643,-0.4703662395477295,0.180816113948822
2026-01-05 14:56:46.368,1.7676250064009736e+18,1.9529736328125,0.0207694191485643,-0.4703662395477295,0.06841690838336945
2026-01-05 14:56:46.401,1.7676250064210048e+18,1.9730047607421874,0.13713926076889038,-0.4703662395477295,0.180816113948822
2026-01-05 14:56:46.434,1.7676250064410358e+18,1.993035888671875,0.4158772473602852,-0.4703662395477295,0.180816113948822
2026-01-05 14:56:46.467,1.7676250064811098e+18,2.03310986328125,0.4158772473602852,-0.23762658075429494,0.06841690838336945
2026-01-05 14:56:46.500,1.7676250065211837e+18,2.073183837890625,0.4158772473602852,-0.09376902392310307,-0.0439822971820831
2026-01-05 14:56:46.533,1.767625006561253e+18,2.113253173828125,0.35808948353966485,-0.4056145250797272,0.0464257597923278
2026-01-05 14:56:46.566,1.767625006581289e+18,2.1332890181440254,0.24251350760459905,-0.09376902392310307,-0.0189368221908807
2026-01-05 14:56:46.599,1.7676250066013248e+18,2.15332470703125,0.0691497678489129,-0.09376902392310307,-0.3860651466540302
2026-01-05 14:56:46.632,1.7676250066413903e+18,2.193390380859375,-0.20082194730639452,-0.19242255389690394,-0.28069257363677025
2026-01-05 14:56:46.665,1.7676250066814694e+18,2.233469482421875,-0.22342396154999727,-0.2571742534637451,-0.0189368221908807
2026-01-05 14:56:46.698,1.7676250067115525e+18,2.2635524902343747,-0.0916297882795333,-0.2571742534637451,-0.0189368221908807
2026-01-05 14:56:46.731,1.7676250067616297e+18,2.313629638671875,-0.0916297882795333,-0.38637226819992065,0.4355469346046448
2026-01-05 14:56:46.764,1.767625006781666e+18,2.333666015625,-0.0397062413394451,-0.2571742534637451,0.4355469346046448
2026-01-05 14:56:46.797,1.7676250068017024e+18,2.353702392578125,-0.0397062413394451,-0.2822197377681732,0.4355469346046448
2026-01-05 14:56:46.830,1.7676250068417828e+18,2.39378271484375,-0.0397062413394451,-0.3793473243713379,0.3677408695220947
2026-01-05 14:56:46.863,1.7676250068818534e+18,2.433853515625,-0.0763581544160842,-0.2822197377681732,0.1331686228513717
2026-01-05 14:56:46.896,1.7676250069219333e+18,2.473933349609375,-0.0763581544160842,-0.2577851414680481,0.1215621829032898
2026-01-05 14:56:46.929,1.767625006942022e+18,2.49402197265625,-0.0763581544160842,-0.2822197377681732,0.0494800843298435
2026-01-05 14:56:46.962,1.7676250069620424e+18,2.51404248046875,-0.0733038261532783,-0.3268128931522369,0.0042760567739605
2026-01-05 14:56:46.995,1.7676250070021432e+18,2.554143310546875,0.0433714315295219,-0.3268128931522369,-0.1551597714424133
2026-01-05 14:56:47.028,1.767625007042236e+18,2.59423583984375,0.0922406539320945,-0.3268128931522369,-0.3268128931522369
2026-01-05 14:56:47.061,1.7676250070823273e+18,2.634327392578125,0.110566608607769,-0.3268128931522369,-0.3854559659957886
2026-01-05 14:56:47.094,1.767625007112409e+18,2.6644093017578125,0.110566608607769,-0.22235494852066034,-0.3878994286060333
2026-01-05 14:56:47.127,1.7676250071424952e+18,2.6944951171875,0.13836097717285156,-0.0183259565383195,-0.4098905771970749
2026-01-05 14:56:47.160,1.767625007162507e+18,2.714507080078125,0.110566608607769,0.1551597714424133,-0.4153883755207062
2026-01-05 14:56:47.193,1.7676250072126382e+18,2.7646380615234376,0.0952949747443199,0.35705073177814484,-0.4373795092105865
2026-01-05 14:56:47.226,1.7676250072426836e+18,2.79468359375,0.0952949747443199,0.3683517575263977,-0.4581489264965057
2026-01-05 14:56:47.259,1.767625007282784e+18,2.834783935546875,0.1487456858158111,0.6902781306275688,-0.5418374538421631
2026-01-05 14:56:47.292,1.7676250073228874e+18,2.874887451171875,0.1667662113904953,0.6902781306275688,-0.6591235995292664
2026-01-05 14:56:47.325,1.7676250073429245e+18,2.894924604897168,0.1667662113904953,0.6902781306275688,-0.7174612283706665
2026-01-05 14:56:47.358,1.767625007362962e+18,2.9149619140625,0.1667662113904953,0.5858197808265686,-0.7174612283706665
2026-01-05 14:56:47.391,1.7676250074131028e+18,2.9651027832031254,0.11392636969685555,0.2571742534637451,-0.7174612283706665
2026-01-05 14:56:47.424,1.7676250074431667e+18,2.995166748046875,0.11392636969685555,0.2571742534637451,-0.6377432942390442
2026-01-05 14:56:47.457,1.7676250074832637e+18,3.035263671875,0.11392636969685555,0.2571742534637451,-0.4294382631778717
2026-01-05 14:56:47.490,1.767625007503307e+18,3.055306929092244,0.17745602097089425,0.398894360448566,-0.3622433467349575
2026-01-05 14:56:47.523,1.7676250075233503e+18,3.075350341796875,0.17745602097089425,0.5626068711280823,-0.3622433467349575
2026-01-05 14:56:47.556,1.7676250075634435e+18,3.115443359375,0.17745602097089425,0.7929030656814575,-0.3622433467349575
2026-01-05 14:56:47.589,1.7676250076035136e+18,3.155513671875,0.1643227487802505,1.0751228332519531,-0.3536909818649292
2026-01-05 14:56:47.622,1.76762500764361e+18,3.195610107421875,0.0659734457731247,1.0751228332519531,-0.3909537494182586
2026-01-05 14:56:47.655,1.7676250076837148e+18,3.23571484375,-0.070249505341053,1.0751228332519531,-0.3933972120285034
2026-01-05 14:56:47.688,1.7676250077038026e+18,3.255802734375,-0.070249505341053,1.064738154411316,-0.413555771112442
2026-01-05 14:56:47.721,1.7676250077238085e+18,3.27580859375,-0.070249505341053,0.9584475755691528,-0.4679227769374847
2026-01-05 14:56:47.754,1.76762500777396e+18,3.3259599609375,-0.047036625444889,0.5839871764183044,-0.4679227769374847
2026-01-05 14:56:47.787,1.7676250078041185e+18,3.356118408203125,-0.04459316283464425,0.5342016369104385,-0.4679227769374847
2026-01-05 14:56:47.820,1.7676250078441923e+18,3.396192138671875,-0.04459316283464425,0.4153883755207062,-0.4043927788734436
2026-01-05 14:56:47.853,1.7676250078842885e+18,3.43628857421875,-0.047036625444889,0.4153883755207062,-0.3836233615875244
2026-01-05 14:56:47.886,1.7676250079043794e+18,3.45637939453125,-0.0213802829384803,0.5607742667198181,-0.3787364661693573
2026-01-05 14:56:47.919,1.7676250079243635e+18,3.476363525390625,-0.0164933614432811,0.5607742667198181,-0.3787364661693573
2026-01-05 14:56:47.952,1.767625007964457e+18,3.51645703125,-0.0067195175215601,0.5607742667198181,-0.2577851414680481
2026-01-05 14:56:47.985,1.767625008004569e+18,3.556569091796875,0.1447750627994537,0.5607742667198181,0.0580321997404098
2026-01-05 14:56:48.018,1.767625008044633e+18,3.596633056640625,0.3347541689872741,0.3054326176643371,0.4764748811721802
2026-01-05 14:56:48.051,1.7676250080646618e+18,3.616661698780152,0.3347541689872741,0.3029891455764376,0.9025550322005846
2026-01-05 14:56:48.084,1.7676250080846902e+18,3.636690185546875,0.3356704527361678,0.3029891455764376,1.32863187789917
2026-01-05 14:56:48.117,1.7676250081247741e+18,3.676774169921875,0.3356704527361678,0.3005456924438476,2.22171688079834
2026-01-05 14:56:48.150,1.7676250081648735e+18,3.71687353515625,0.4410447180271148,-0.0073303831741213,2.22171688079834
2026-01-05 14:56:48.183,1.7676250081949517e+18,3.7469517822265628,0.5439755022525787,-0.06841690093278885,2.22171688079834
2026-01-05 14:56:48.216,1.7676250082450232e+18,3.797023193359375,0.6505714654922485,-0.9535606503486632,1.8894062042236328
2026-01-05 14:56:48.249,1.767625008265065e+18,3.8170650634765626,0.6505714654922485,-1.0390817821025848,1.7977764010429382
2026-01-05 14:56:48.282,1.767625008285107e+18,3.83710693359375,0.6505714654922485,-1.0390817821025848,1.7061465978622437
2026-01-05 14:56:48.315,1.76762500833521e+18,3.8872099609375,0.5516113042831421,-1.0390817821025848,1.501201331615448
2026-01-05 14:56:48.348,1.7676250083653138e+18,3.917313720703125,0.5210680365562439,-1.0348057746887207,1.2198978662490845
2026-01-05 14:56:48.381,1.7676250084054218e+18,3.957421875,0.2755002379417419,-1.007316827774048,0.8753699064254761
2026-01-05 14:56:48.414,1.767625008445504e+18,3.99750390625,0.1154535338282585,-0.4471533596515655,0.3982841372489929
2026-01-05 14:56:48.447,1.767625008465538e+18,4.0175380859375,0.013133604079484953,-0.19822577200829983,0.20097466441802675
2026-01-05 14:56:48.480,1.7676250084855724e+18,4.037572265625,-0.0891863256692886,0.0507018156349659,0.0036651915870606
2026-01-05 14:56:48.513,1.7676250085356856e+18,4.087685668945312,-0.50335294008255,0.1466076597571373,-0.40317104756832123
2026-01-05 14:56:48.546,1.7676250085657152e+18,4.117715087890625,-0.50335294008255,0.3255911767482757,-0.8063421249389648
2026-01-05 14:56:48.579,1.7676250086057928e+18,4.157792724609375,-0.50335294008255,0.3292563557624817,-1.177748203277588
2026-01-05 14:56:48.612,1.7676250086258406e+18,4.177840698242187,-0.44287729263305664,0.3292563557624817,-1.177748203277588
2026-01-05 14:56:48.645,1.7676250086458888e+18,4.197888671875,-0.3824016451835632,0.3292563557624817,-1.177748203277588
2026-01-05 14:56:48.678,1.7676250086859643e+18,4.23796435546875,-0.1753183305263519,0.0134390350431203,-0.5393940210342407
2026-01-05 14:56:48.711,1.767625008726036e+18,4.278035888671875,-0.1398881375789642,0.0134390350431203,-0.5393940210342407
2026-01-05 14:56:48.744,1.7676250087661158e+18,4.31811572265625,-0.0140499006956815,0.0134390350431203,-0.5393940210342407
2026-01-05 14:56:48.777,1.7676250088061773e+18,4.35817724609375,0.1069014146924018,0.1698205322027206,-0.6774495542049408
2026-01-05 14:56:48.810,1.7676250088262533e+18,4.37825341796875,-0.0140499006956815,0.4996877610683441,-0.6774495542049408
2026-01-05 14:56:48.843,1.767625008856281e+18,4.408281127929688,-0.0140499006956815,0.9563095569610596,-0.7037167549133301
2026-01-05 14:56:48.876,1.7676250088863224e+18,4.438322509765625,-0.0977384373545646,0.9563095569610596,-0.7037167549133301
2026-01-05 14:56:48.909,1.767625008926387e+18,4.478386962890625,-0.0977384373545646,0.9563095569610596,-0.7183775305747986
2026-01-05 14:56:48.942,1.767625008966524e+18,4.51852392578125,-0.0977384373545646,1.1850786209106443,-0.748768076300621
2026-01-05 14:56:48.975,1.7676250090066143e+18,4.5586142578125,0.1197295859456062,1.1850786209106443,-0.7791586220264435
2026-01-05 14:56:49.008,1.7676250090316703e+18,4.583670471191406,0.1406517215073108,1.2800680994987488,-0.748768076300621
2026-01-05 14:56:49.041,1.7676250090567265e+18,4.608726684570312,0.16157385706901545,1.8887953162193298,-0.7183775305747986
2026-01-05 14:56:49.074,1.767625009086768e+18,4.63876806640625,0.1753183305263519,1.8887953162193298,-0.656680166721344
2026-01-05 14:56:49.107,1.7676250091268762e+18,4.678876220703125,0.1753183305263519,1.8887953162193298,-0.5861250990652154
2026-01-05 14:56:49.140,1.7676250091669757e+18,4.718975830078125,0.1753183305263519,1.4001030921936035,-0.5861250990652154
2026-01-05 14:56:49.173,1.7676250091870295e+18,4.739029463231685,0.13775026570326349,1.3084737040292032,-0.5861250990652154
2026-01-05 14:56:49.206,1.7676250092070833e+18,4.759083251953125,0.098960168659687,1.216843605041504,-0.6108652353286743
2026-01-05 14:56:49.239,1.7676250092471834e+18,4.799183349609375,0.0824668109416961,1.080009698867798,-0.6126978397369385
2026-01-05 14:56:49.272,1.767625009287261e+18,4.839260986328125,-0.0403171069920063,0.9156870245933532,-0.6126978397369385
2026-01-05 14:56:49.305,1.7676250093273654e+18,4.879365478515625,-0.1185078546404838,0.8943067193031311,-0.6126978397369385
2026-01-05 14:56:49.338,1.767625009367475e+18,4.919474853515625,-0.1966986060142517,0.8442157506942749,-0.3597996234893799
2026-01-05 14:56:49.371,1.7676250093875226e+18,4.93952241662698,-0.1966986060142517,0.8090908655078525,-0.35766161317419115
2026-01-05 14:56:49.404,1.76762500940757e+18,4.95956982421875,-0.1966986060142517,0.7739662528038025,-0.3555235862731933
2026-01-05 14:56:49.437,1.767625009457711e+18,5.0097110595703125,-0.1374446749687194,0.7739662528038025,-0.2547308206558227
2026-01-05 14:56:49.470,1.7676250094877683e+18,5.039768310546875,-0.0678060427308082,0.7739662528038025,-0.25259277224540705
2026-01-05 14:56:49.503,1.7676250095278446e+18,5.0798447265625,-0.04367686621844765,0.8594874143600464,-0.1514945775270462
2026-01-05 14:56:49.536,1.767625009567947e+18,5.119947021484375,0.1795943826436996,0.8594874143600464,0.0299323964864015
2026-01-05 14:56:49.569,1.7676250095880266e+18,5.140026611328125,0.1795943826436996,0.8594874143600464,0.2247984111309051
2026-01-05 14:56:49.602,1.7676250096080353e+18,5.160035400390625,0.1795943826436996,0.6798930168151855,0.4758640229701996
2026-01-05 14:56:49.635,1.7676250096481178e+18,5.20011767578125,0.1551597714424133,0.6798930168151855,1.4892895221710205
2026-01-05 14:56:49.668,1.7676250096882207e+18,5.240220703125,0.1435533314943313,0.6798930168151855,2.334116220474243
2026-01-05 14:56:49.701,1.7676250097283013e+18,5.28030126953125,0.1368338167667389,0.9853256344795228,2.334116220474243
2026-01-05 14:56:49.734,1.767625009748342e+18,5.30034199667859,0.1435533314943313,0.9853256344795228,2.334116220474243
2026-01-05 14:56:49.767,1.7676250097683825e+18,5.320382568359375,0.1435533314943313,0.9853256344795228,2.172236919403076
2026-01-05 14:56:49.800,1.7676250098185124e+18,5.370512451171875,0.3094032406806946,-0.56566122174263,1.7736471891403198
2026-01-05 14:56:49.833,1.767625009848576e+18,5.400575927734375,0.3408628106117248,-0.56566122174263,1.5619823932647705
2026-01-05 14:56:49.866,1.7676250098886671e+18,5.440667236328125,0.3930917829275131,-0.56566122174263,1.4007140398025513
2026-01-05 14:56:49.899,1.7676250099287672e+18,5.480767333984375,0.3930917829275131,-0.5064072608947754,1.0629055500030518
2026-01-05 14:56:49.932,1.7676250099488218e+18,5.50082177734375,0.3930917829275131,-0.37110061943531036,0.8613200187683105
2026-01-05 14:56:49.965,1.7676250099688763e+18,5.520876220703125,0.1942551434040069,-0.2357939779758453,0.6597344875335693
2026-01-05 14:56:49.998,1.767625010008948e+18,5.560947998046875,-0.3078760802745819,0.2083050459623336,0.1337794959545135
2026-01-05 14:56:50.031,1.7676250100490312e+18,5.60103125,-0.3078760802745819,0.2913827300071716,-0.4331034719944
2026-01-05 14:56:50.064,1.7676250100891323e+18,5.64113232421875,-0.3078760802745819,0.2913827300071716,-0.7812969297028339
2026-01-05 14:56:50.097,1.7676250101292196e+18,5.681219482421875,-0.271224170923233,0.2913827300071716,-0.7812969297028339
2026-01-05 14:56:50.130,1.7676250101492685e+18,5.701268476921553,-0.1655448918563197,0.1609635019425692,-0.7812969297028339
2026-01-05 14:56:50.163,1.7676250101693176e+18,5.721317626953125,-0.0598647929728031,0.0305432621389627,-0.7067710757255554
2026-01-05 14:56:50.196,1.7676250102094124e+18,5.761412353515625,-0.0598647929728031,-0.2064724564552307,-0.1667662113904953
2026-01-05 14:56:50.229,1.7676250102494815e+18,5.8014814453125,-0.0598647929728031,-0.2400700449943542,-0.1667662113904953
2026-01-05 14:56:50.262,1.7676250102895524e+18,5.841552490234375,-0.209526777267456,-0.3390302062034607,-0.1667662113904953
2026-01-05 14:56:50.295,1.767625010309594e+18,5.861594116210938,-0.209526777267456,-0.2400700449943542,-0.42699479311704636
2026-01-05 14:56:50.328,1.7676250103296358e+18,5.8816357421875,-0.209526777267456,-0.2064724564552307,-0.6872233748435974
2026-01-05 14:56:50.361,1.7676250103697103e+18,5.92171044921875,-0.30970868468284607,0.8356636762619019,-0.7452555894851685
2026-01-05 14:56:50.394,1.767625010409786e+18,5.9617861328125,-0.1832595765590667,0.8356636762619019,-1.140485405921936
2026-01-05 14:56:50.427,1.767625010449863e+18,6.00186279296875,-0.1783726513385772,0.8356636762619019,-1.1814134120941162
2026-01-05 14:56:50.460,1.7676250104899261e+18,6.041926025390625,-0.1783726513385772,0.8356636762619019,-1.2223411999111364
2026-01-05 14:56:50.493,1.7676250105149873e+18,6.066987146445383,-0.10247293951362907,0.8356636762619019,-1.2223411999111364
2026-01-05 14:56:50.526,1.7676250105400484e+18,6.092048461914063,-0.0265726388897746,0.8655960559844972,-1.1814134120941162
2026-01-05 14:56:50.559,1.7676250105701e+18,6.122099853515625,0.0616973899304866,1.3768903017044067,-1.1545352935791016
2026-01-05 14:56:50.592,1.767625010610193e+18,6.16219287109375,0.0879645943641662,1.3768903017044067,-0.6829473376274109
2026-01-05 14:56:50.625,1.7676250106502879e+18,6.202287841796875,0.0879645943641662,1.3768903017044067,-0.6829473376274109
2026-01-05 14:56:50.658,1.7676250106903716e+18,6.24237158203125,0.0879645943641662,0.9902125597000122,-0.6829473376274109
2026-01-05 14:56:50.691,1.7676250107104044e+18,6.262404374577501,0.04642559704249141,0.7712165265595119,-0.7412854604912626
2026-01-05 14:56:50.724,1.767625010730437e+18,6.28243701171875,0.0048869219608604,0.5522221922874451,-0.8604036867618561
2026-01-05 14:56:50.757,1.7676250107705382e+18,6.322538330078125,-0.1527163088321685,0.5522221922874451,-0.8604036867618561
2026-01-05 14:56:50.790,1.7676250108006205e+18,6.352620483398438,-0.16187929362058634,0.5522221922874451,-0.8604036867618561
2026-01-05 14:56:50.823,1.7676250108507205e+18,6.402720458984375,-0.1881465017795562,0.5858197808265686,-0.4813618063926697
2026-01-05 14:56:50.856,1.7676250108707712e+18,6.4227711181640625,-0.1881465017795562,0.5858197808265686,-0.3585778921842575
2026-01-05 14:56:50.889,1.767625010890822e+18,6.44282177734375,-0.1881465017795562,0.5931501686573029,-0.26603181660175323
2026-01-05 14:56:50.922,1.7676250109409544e+18,6.492954345703125,-0.18845193088054651,0.5931501686573029,-0.2357939779758453
2026-01-05 14:56:50.955,1.7676250109709832e+18,6.522983154296875,-0.0934623852372169,0.5858197808265686,-0.2333505302667617
2026-01-05 14:56:50.988,1.7676250110010665e+18,6.55306640625,-0.07849618047475809,0.5839871466159821,0.037262779660522945
2026-01-05 14:56:51.021,1.7676250110511524e+18,6.60315234375,0.3347541689872741,0.4184426963329315,0.4978551864624023
2026-01-05 14:56:51.054,1.7676250110711903e+18,6.623190385340048,0.3347541689872741,0.33505990661188456,0.9560059198204023
2026-01-05 14:56:51.087,1.7676250110912282e+18,6.643228271484375,0.3347541689872741,0.33505990661188456,1.4141530990600586
2026-01-05 14:56:51.120,1.7676250111313267e+18,6.68332666015625,0.2987131178379059,0.33505990661188456,2.3157901763916016
2026-01-05 14:56:51.153,1.7676250111714235e+18,6.723423583984375,0.2987131178379059,0.2718350291252136,2.3157901763916016
2026-01-05 14:56:51.186,1.7676250112114954e+18,6.763495361328125,0.2987131178379059,0.0054977871477603,2.3157901763916016
2026-01-05 14:56:51.219,1.7676250112515901e+18,6.803590087890625,0.4416555762290954,-0.7086036801338196,1.9339994192123413
2026-01-05 14:56:51.252,1.7676250112716314e+18,6.823631469726562,0.4990769028663635,-1.12582466006279,1.8606955409049988
2026-01-05 14:56:51.285,1.7676250112916728e+18,6.8436728515625,0.5564982295036316,-1.397048830986023,1.7873916625976562
2026-01-05 14:56:51.318,1.767625011331755e+18,6.883755126953125,0.5564982295036316,-1.397048830986023,1.434922456741333
2026-01-05 14:56:51.351,1.7676250113718574e+18,6.923857421875,0.5564982295036316,-1.397048830986023,0.959669291973114
2026-01-05 14:56:51.384,1.7676250114019433e+18,6.953943237304687,0.5366451293230057,-1.2757920622825623,0.6722572147846222
2026-01-05 14:56:51.417,1.7676250114269783e+18,6.978978332519531,0.25182920321822166,-0.888350784778595,0.310166833922267
2026-01-05 14:56:51.450,1.7676250114520133e+18,7.004013427734375,-0.0329867228865623,-0.5009095072746277,-0.0519235469400882
2026-01-05 14:56:51.483,1.7676250114920863e+18,7.044086181640625,-0.1875356286764145,-0.23365595191717148,-0.5937610268592834
2026-01-05 14:56:51.516,1.7676250115321618e+18,7.084161865234375,-0.1875356286764145,-0.23365595191717148,-0.5937610268592834
2026-01-05 14:56:51.549,1.7676250115622438e+18,7.114243774414063,-0.1875356286764145,-0.23365595191717148,-0.5937610268592834
2026-01-05 14:56:51.582,1.767625011612328e+18,7.164327880859375,0.0152716310694813,-0.6340781450271606,-0.4178318381309509
2026-01-05 14:56:51.615,1.7676250116323676e+18,7.18436767578125,0.3265074626542628,-0.6340781450271606,0.1869247555732727
2026-01-05 14:56:51.648,1.7676250116524076e+18,7.204407470703125,0.3265074626542628,-0.6340781450271606,0.1869247555732727
2026-01-05 14:56:51.681,1.7676250116924754e+18,7.244475341796875,0.3265074626542628,-0.3390302062034607,0.1869247555732727
2026-01-05 14:56:51.714,1.7676250117325555e+18,7.284555419921875,0.0897971913218498,-0.2437352389097213,-0.171042263507843
2026-01-05 14:56:51.747,1.7676250117726454e+18,7.324645263671875,-0.0965167060494422,0.0653625801205635,-0.371406078338623
2026-01-05 14:56:51.780,1.7676250118127165e+18,7.364716552734375,-0.15668597951602678,1.1410962343215942,-0.5742133259773254
2026-01-05 14:56:51.813,1.767625011832752e+18,7.3847522416216,-0.15668597951602678,1.1410962343215942,-0.9807425764173976
2026-01-05 14:56:51.846,1.767625011852788e+18,7.4047880859375,-0.15668597951602678,1.1410962343215942,-1.2962560653686523
2026-01-05 14:56:51.879,1.767625011892861e+18,7.44486083984375,-0.15668597951602678,1.1722503900527954,-1.378722906112671
2026-01-05 14:56:51.912,1.7676250119329178e+18,7.484917724609375,-0.1753183305263519,1.1722503900527954,-1.387274980545044
2026-01-05 14:56:51.945,1.7676250119729917e+18,7.52499169921875,-0.1026253625750541,1.1722503900527954,-1.378722906112671
2026-01-05 14:56:51.978,1.7676250119930785e+18,7.54507861328125,-0.0610865242779254,1.4776830673217771,-1.378722906112671
2026-01-05 14:56:52.011,1.7676250120130982e+18,7.56509814453125,-0.0610865242779254,1.4776830673217771,-1.2498302459716797
2026-01-05 14:56:52.044,1.7676250120531786e+18,7.6051787109375,-0.0274889357388019,1.4776830673217771,-0.8546004891395569
2026-01-05 14:56:52.077,1.7676250120932687e+18,7.645268798828125,0.0042760567739605,0.7275404930114746,-0.8546004891395569
2026-01-05 14:56:52.110,1.767625012133354e+18,7.68535400390625,0.0042760567739605,0.5711590051651001,-0.7232644557952881
2026-01-05 14:56:52.143,1.7676250121734116e+18,7.72541162109375,-0.0274889357388019,0.4856378734111786,-0.7012733221054077
2026-01-05 14:56:52.176,1.7676250121934546e+18,7.745454467773437,-0.028710667043924346,0.4367686510086059,-0.698829859495163
2026-01-05 14:56:52.209,1.7676250122134973e+18,7.765497314453125,-0.1246165111660957,0.4367686510086059,-0.6963863968849182
2026-01-05 14:56:52.242,1.7676250122535951e+18,7.80559521484375,-0.1264491081237793,0.4367686510086059,-0.6530149579048157
2026-01-05 14:56:52.275,1.7676250122936852e+18,7.845685302734375,-0.1264491081237793,0.4856378734111786,-0.5112941861152649
2026-01-05 14:56:52.308,1.76762501233378e+18,7.885780029296875,-0.1264491081237793,0.4856378734111786,-0.3891211748123169
2026-01-05 14:56:52.341,1.767625012373878e+18,7.9258779296875,-0.1264491081237793,0.6572909951210022,-0.3469714522361755
2026-01-05 14:56:52.374,1.767625012393916e+18,7.9459159712775485,-0.1264491081237793,0.6933321860656917,-0.30176724841247227
2026-01-05 14:56:52.407,1.7676250124139538e+18,7.965953857421875,-0.09529519933170047,0.6933321860656917,-0.2565633952617645
2026-01-05 14:56:52.440,1.767625012454051e+18,8.006051025390626,-0.09529519933170047,0.6933321860656917,-0.0653625801205635
2026-01-05 14:56:52.473,1.767625012494134e+18,8.046134033203124,-0.0348193198442459,0.5913175344467163,0.3549126982688904
2026-01-05 14:56:52.506,1.767625012524212e+18,8.076212036132812,0.2364048510789871,0.25686883274465794,0.6847799271345139
2026-01-05 14:56:52.539,1.7676250125542932e+18,8.106293212890625,0.2864958047866821,-0.0274889357388019,1.4422528743743896
2026-01-05 14:56:52.572,1.7676250125742892e+18,8.1262890625,0.34697146713733673,-0.0274889357388019,1.9999728202819824
2026-01-05 14:56:52.605,1.7676250126143726e+18,8.16637255859375,0.3481931984424591,-0.098960168659687,2.054950714111328
2026-01-05 14:56:52.638,1.7676250126544448e+18,8.20644482421875,0.607810914516449,-0.1527163088321685,2.054950714111328
2026-01-05 14:56:52.671,1.7676250126945244e+18,8.2465244140625,0.7735081166028976,-0.3280346393585205,2.054950714111328
2026-01-05 14:56:52.704,1.7676250127346063e+18,8.2866064453125,0.7735081166028976,-1.7238616943359375,1.7629570960998535
2026-01-05 14:56:52.737,1.7676250127596657e+18,8.311665893554688,0.7941248416900635,-1.7440202236175537,1.5004377663135529
2026-01-05 14:56:52.770,1.7676250127847252e+18,8.336725341796875,0.7751879692077637,-1.7733417749404907,1.2379184365272522
2026-01-05 14:56:52.803,1.7676250128147763e+18,8.3667763671875,0.7735081166028976,-1.7733417749404907,1.0396926403045654
2026-01-05 14:56:52.836,1.767625012854875e+18,8.406875,0.7486153542995453,-1.7440202236175537,0.6579018831253052
2026-01-05 14:56:52.869,1.7676250128949535e+18,8.446953369140624,0.4667010605335235,-1.405600905418396,0.1869247704744339
2026-01-05 14:56:52.902,1.7676250129150298e+18,8.46702978515625,0.2577851414680481,-0.9584475755691528,-0.0403171069920063
2026-01-05 14:56:52.935,1.7676250129450568e+18,8.497056762695312,0.10323622822761534,-0.43768495321273804,-0.28985555469989777
2026-01-05 14:56:52.968,1.7676250129750968e+18,8.527096923828125,0.0207694191485643,-0.1490511149168014,-0.4178318381309509
2026-01-05 14:56:53.001,1.7676250130151757e+18,8.56717578125,-0.051312681287527,-0.1142318025231361,-0.4349360466003418
2026-01-05 14:56:53.034,1.7676250130552663e+18,8.607266357421874,-0.051312681287527,-0.0403171069920063,-0.4349360466003418
2026-01-05 14:56:53.067,1.7676250130953682e+18,8.6473681640625,-0.051312681287527,0.0971275717020034,-0.4349360466003418
2026-01-05 14:56:53.100,1.7676250131154588e+18,8.667458740234375,0.0995710343122482,0.1020144969224929,0.0384845100343227
2026-01-05 14:56:53.133,1.7676250131354442e+18,8.6874443359375,0.0995710343122482,0.1020144969224929,0.0384845100343227
2026-01-05 14:56:53.166,1.7676250131855468e+18,8.737546875,0.0995710343122482,0.1020144969224929,0.0384845100343227
2026-01-05 14:56:53.199,1.767625013215587e+18,8.767587158203124,0.0598647929728031,0.1020144969224929,-0.0421497002243995
2026-01-05 14:56:53.232,1.7676250132556593e+18,8.8076591796875,-0.0616973899304866,0.20830504968762395,-0.3536909818649292
2026-01-05 14:56:53.265,1.7676250132957376e+18,8.847737548828125,-0.0983493030071258,0.3842342495918274,-0.3952298164367676
2026-01-05 14:56:53.298,1.7676250133157722e+18,8.8677721390868,-0.10048671268305241,0.6743952035903931,-0.8313858876809072
2026-01-05 14:56:53.331,1.767625013335807e+18,8.887806884765626,-0.10048671268305241,0.6743952035903931,-1.0641272068023682
2026-01-05 14:56:53.364,1.7676250133758743e+18,8.927874267578124,-0.10048671268305241,0.6743952035903931,-1.2675453424453735
2026-01-05 14:56:53.397,1.7676250134159414e+18,8.96794140625,-0.0751364231109619,0.6743952035903931,-1.3310753107070925
2026-01-05 14:56:53.430,1.7676250134560154e+18,9.008015380859376,-0.0696386396884918,0.6743952035903931,-1.3310753107070925
2026-01-05 14:56:53.463,1.7676250134760556e+18,9.028055419921877,-0.048258354887366246,1.0622946619987488,-1.303586483001709
2026-01-05 14:56:53.496,1.7676250134960955e+18,9.048095458984376,-0.0268780700862407,1.547932505607605,-1.303586483001709
2026-01-05 14:56:53.529,1.7676250135361784e+18,9.088178466796874,0.03756821248680345,1.547932505607605,-0.7550294399261475
2026-01-05 14:56:53.562,1.7676250135762785e+18,9.128278564453124,0.0934623852372169,1.547932505607605,-0.6383541822433472
2026-01-05 14:56:53.595,1.7676250136063642e+18,9.158364013671875,0.1127046537929221,1.218065321445465,-0.6383541822433472
2026-01-05 14:56:53.628,1.7676250136565594e+18,9.208559326171876,0.1127046537929221,0.9724974632263184,-0.6383541822433472
2026-01-05 14:56:53.661,1.7676250136766154e+18,9.228615400722216,0.1087340116500854,0.9245447290267227,-0.6383541822433472
2026-01-05 14:56:53.694,1.7676250136966717e+18,9.248671630859375,0.1087340116500854,0.8765916228294373,-0.6383541822433472
2026-01-05 14:56:53.727,1.767625013736771e+18,9.28877099609375,-0.1178969889879226,0.8765916228294373,-0.6304129362106323
2026-01-05 14:56:53.760,1.7676250137768783e+18,9.32887841796875,-0.1178969889879226,0.7782423496246338,-0.5778785347938538
2026-01-05 14:56:53.793,1.7676250138169713e+18,9.36897119140625,-0.1178969889879226,0.7782423496246338,-0.4245513379573822
2026-01-05 14:56:53.826,1.7676250138570447e+18,9.409044677734377,-0.1050688251852989,0.8491026759147644,-0.394008070230484
2026-01-05 14:56:53.859,1.7676250138771372e+18,9.42913720703125,-0.0931569524109363,0.8943067193031311,-0.373238667845726
2026-01-05 14:56:53.892,1.767625013907197e+18,9.45919677734375,-0.0931569524109363,0.8976664841175079,-0.36529740691185
2026-01-05 14:56:53.925,1.767625013947275e+18,9.499275024414061,-0.0931569524109363,1.0622946321964264,-0.2831360399723053
2026-01-05 14:56:53.958,1.7676250139773312e+18,9.529331298828126,-0.0931569524109363,1.3200798034667969,-0.230907067656517
2026-01-05 14:56:53.991,1.767625014017433e+18,9.56943310546875,-0.0931569524109363,1.3200798034667969,-0.1026253625750541
2026-01-05 14:56:54.024,1.7676250140425004e+18,9.594500366210939,0.06108652055263522,1.3200798034667969,0.0965167097747326
2026-01-05 14:56:54.057,1.7676250140675676e+18,9.619567626953128,0.2021963894367218,1.1105530261993408,0.2956587821245193
2026-01-05 14:56:54.090,1.7676250140975974e+18,9.649597412109374,0.2260201424360275,1.0555751323699951,0.9077457785606384
2026-01-05 14:56:54.123,1.7676250141377052e+18,9.689705322265626,0.2260201424360275,1.0555751323699951,1.83992612361908
2026-01-05 14:56:54.156,1.7676250141778204e+18,9.7298203125,0.2260201424360275,1.0476338863372805,1.982002351822055
2026-01-05 14:56:54.189,1.767625014207914e+18,9.759913940429687,0.24404084892838965,1.0476338863372805,1.982002351822055
2026-01-05 14:56:54.222,1.7676250142329613e+18,9.784961339828765,0.2926044464111328,0.9863941474840946,1.982002351822055
2026-01-05 14:56:54.255,1.7676250142580086e+18,9.810008544921876,0.24404084892838965,0.8546004891395569,1.9004018306732176
2026-01-05 14:56:54.288,1.7676250142980861e+18,9.850086181640624,0.2828305959701538,-0.1087340116500854,1.443474531173706
2026-01-05 14:56:54.321,1.767625014338164e+18,9.8901640625,0.2828305959701538,-0.2602286040782928,1.2705997228622437
2026-01-05 14:56:54.354,1.767625014378248e+18,9.930248046875,0.2348776906728744,-0.2602286040782928,0.9547823667526244
2026-01-05 14:56:54.387,1.7676250144083446e+18,9.960344604492187,0.1734857261180877,-0.2602286040782928,0.7434230148792267
2026-01-05 14:56:54.420,1.7676250144384082e+18,9.990408203125,-0.00412333756685257,-0.2134974058717489,0.4326453147805296
2026-01-05 14:56:54.453,1.7676250144684718e+18,10.020471801757811,-0.1637118905782699,-0.11117747053503992,0.12186761468183245
2026-01-05 14:56:54.486,1.7676250144985055e+18,10.05050537109375,-0.1637118905782699,0.2791654169559479,-0.230907067656517
2026-01-05 14:56:54.519,1.7676250145386033e+18,10.090603271484374,-0.1637118905782699,0.4685336351394653,-0.5198463201522827
2026-01-05 14:56:54.552,1.7676250145686845e+18,10.120684570312498,-0.018631389364600202,0.4685336351394653,-0.5198463201522827
2026-01-05 14:56:54.585,1.7676250145987459e+18,10.150745971679687,0.14095715153962368,0.4685336351394653,-0.5198463201522827
2026-01-05 14:56:54.618,1.7676250146288072e+18,10.180807373046875,0.2724458873271942,0.40164388716220856,-0.48747047781944275
2026-01-05 14:56:54.651,1.7676250146588413e+18,10.21084130859375,0.2724458873271942,0.1185078546404838,-0.3677408695220947
2026-01-05 14:56:54.684,1.7676250146989435e+18,10.250943603515625,0.2724458873271942,0.0048869219608604,-0.1062905490398407
2026-01-05 14:56:54.717,1.7676250147390497e+18,10.2910498046875,0.0555887371301651,-0.0445931628346443,-0.1062905490398407
2026-01-05 14:56:54.750,1.7676250147691471e+18,10.321147094726562,-0.1689042411744594,-0.26969700306653976,-0.1062905490398407
2026-01-05 14:56:54.783,1.7676250147941893e+18,10.346189392089844,-0.1689042411744594,-0.26969700306653976,-0.40133847668766975
2026-01-05 14:56:54.816,1.7676250148192317e+18,10.371231689453126,-0.1689042411744594,-0.26969700306653976,-0.5314527750015259
2026-01-05 14:56:54.849,1.7676250148593042e+18,10.41130419921875,-0.1093448773026466,0.0891863256692886,-0.5314527750015259
2026-01-05 14:56:54.882,1.767625014899385e+18,10.451385009765623,-0.1093448773026466,0.6383541822433472,-0.8100073337554932
2026-01-05 14:56:54.915,1.7676250149394565e+18,10.49145654296875,-0.1093448773026466,1.3817771673202517,-0.9505064544306557
2026-01-05 14:56:54.948,1.7676250149695375e+18,10.521537597656252,-0.3481931984424591,1.3817771673202517,-0.9144652485847472
2026-01-05 14:56:54.981,1.7676250149945764e+18,10.546576440965389,-0.3481931984424591,1.3817771673202517,-0.9144652485847472
2026-01-05 14:56:55.014,1.7676250150196155e+18,10.571615478515625,-0.3481931984424591,1.1905763149261477,-0.9144652485847472
2026-01-05 14:56:55.047,1.7676250150596838e+18,10.611683837890626,0.230907067656517,1.1905763149261477,-0.7195992469787598
2026-01-05 14:56:55.080,1.7676250150997688e+18,10.651768798828124,0.230907067656517,1.1905763149261477,-0.6359107494354248
2026-01-05 14:56:55.113,1.7676250151398653e+18,10.691865234375,0.230907067656517,1.860084652900696,-0.5436700582504272
2026-01-05 14:56:55.146,1.7676250151599552e+18,10.711955078125,0.0952949747443199,1.860084652900696,-0.5436700582504272
2026-01-05 14:56:55.179,1.767625015179956e+18,10.7319560546875,0.0293215326964855,1.860084652900696,-0.5436700582504272
2026-01-05 14:56:55.212,1.7676250152300854e+18,10.78208544921875,0.0293215326964855,1.4941763877868652,-0.560468852519989
2026-01-05 14:56:55.245,1.7676250152601418e+18,10.812141845703126,0.0134390345774591,1.0659598112106323,-0.560468852519989
2026-01-05 14:56:55.278,1.7676250153002243e+18,10.852224365234376,0.0097738439217209,1.064738154411316,-0.560468852519989
2026-01-05 14:56:55.311,1.7676250153403249e+18,10.892324951171876,-0.0122173046693205,0.8558222055435181,-0.5326744914054871
2026-01-05 14:56:55.344,1.767625015360432e+18,10.91243212890625,-0.0598647929728031,0.8136724829673767,-0.5027421116828918
2026-01-05 14:56:55.377,1.7676250154005463e+18,10.95254638671875,-0.1869247704744339,0.7052439451217651,-0.4526511430740356
2026-01-05 14:56:55.410,1.7676250154306017e+18,10.982601684570312,-0.2299907580018043,0.6701191663742065,-0.41111230850219727
2026-01-05 14:56:55.443,1.7676250154606615e+18,11.01266162109375,-0.2299907580018043,0.5992587804794312,-0.3433062732219696
2026-01-05 14:56:55.476,1.7676250154907581e+18,11.042758056640626,-0.2568690391369035,0.4743369514169992,-0.33872477710247034
2026-01-05 14:56:55.509,1.767625015540845e+18,11.092844970703124,-0.2568690391369035,0.4743369514169992,-0.2950479090213775
2026-01-05 14:56:55.542,1.7676250155608988e+18,11.11289888149535,-0.2568690391369035,0.4743369514169992,-0.23609918587915374
2026-01-05 14:56:55.575,1.7676250155809526e+18,11.13295263671875,-0.2568690391369035,0.4972442984580993,-0.1771509200334549
2026-01-05 14:56:55.608,1.767625015621066e+18,11.17306591796875,-0.2568690391369035,0.4972442984580993,-0.098960168659687
2026-01-05 14:56:55.641,1.7676250156611494e+18,11.2131494140625,0.0897971913218498,0.4972442984580993,0.0207694191485643
2026-01-05 14:56:55.674,1.7676250157012296e+18,11.2532294921875,0.0897971913218498,0.2376265823841095,0.4404338300228119
2026-01-05 14:56:55.707,1.7676250157212716e+18,11.273271562113486,0.0897971913218498,0.2376265823841095,0.9303496856222868
2026-01-05 14:56:55.740,1.7676250157413135e+18,11.2933134765625,0.1285867657388694,0.21930069879078806,1.4202617406845093
2026-01-05 14:56:55.773,1.7676250157813834e+18,11.333383544921874,0.1285867657388694,0.21930069879078806,2.4190263748168945
2026-01-05 14:56:55.806,1.7676250158214582e+18,11.373458251953124,0.2076941877603531,0.1960877478122711,2.4190263748168945
2026-01-05 14:56:55.839,1.7676250158515436e+18,11.403543579101562,0.6151413023471832,0.15577064454555514,2.4190263748168945
2026-01-05 14:56:55.872,1.7676250159016156e+18,11.45361572265625,0.690074106057485,-1.016479730606079,1.7104226350784302
2026-01-05 14:56:55.905,1.7676250159216558e+18,11.473655883789062,0.7379252314567566,-1.3912456035614014,1.5173892378807068
2026-01-05 14:56:55.938,1.767625015941696e+18,11.493696044921874,0.7650069097677866,-1.6584991216659546,1.3243558406829834
2026-01-05 14:56:55.971,1.7676250159817787e+18,11.53377880859375,0.7834346741437912,-1.742187738418579,1.0910053253173828
2026-01-05 14:56:56.004,1.7676250160219277e+18,11.573927734375,0.7834346741437912,-1.742187738418579,1.0140362977981567
2026-01-05 14:56:56.037,1.767625016052023e+18,11.604023071289063,0.7379252314567566,-1.6584991216659546,0.8399397134780884
2026-01-05 14:56:56.070,1.7676250161021e+18,11.654099853515625,0.3536909818649292,-1.2553280591964722,0.242513507604599
2026-01-05 14:56:56.103,1.767625016122132e+18,11.674132080078124,0.18661933485418555,-0.8985827565193176,0.051618114113807706
2026-01-05 14:56:56.136,1.7676250161421642e+18,11.694164306640625,0.0195476878434419,-0.5418374538421631,-0.1392772793769836
2026-01-05 14:56:56.169,1.7676250161822374e+18,11.734237548828125,-0.1209513172507286,-0.2419026345014572,-0.3164281845092773
2026-01-05 14:56:56.202,1.7676250162222986e+18,11.774298583984375,-0.1209513172507286,-0.0928515195846557,-0.6090326309204102
2026-01-05 14:56:56.235,1.7676250162623552e+18,11.814355224609375,-0.1209513172507286,-0.0928515195846557,-0.6090326309204102
2026-01-05 14:56:56.268,1.76762501628239e+18,11.834390014648438,-0.0583376279100776,-0.0928515195846557,-0.6090326309204102
2026-01-05 14:56:56.301,1.7676250163024248e+18,11.8544248046875,0.0299323964864015,-0.1209513172507286,-0.5338962078094482
2026-01-05 14:56:56.334,1.7676250163425004e+18,11.894500244140623,0.0335975885391235,-0.5485569834709167,-0.5338962078094482
2026-01-05 14:56:56.367,1.7676250163825618e+18,11.934561767578124,0.0335975885391235,-0.5858197808265686,-0.5338962078094482
2026-01-05 14:56:56.400,1.7676250164226232e+18,11.974623291015623,0.0335975885391235,-0.5858197808265686,-0.5943718552589417
2026-01-05 14:56:56.433,1.7676250164626857e+18,12.014685791015625,0.0335975885391235,-0.5858197808265686,-0.5943718552589417
2026-01-05 14:56:56.466,1.7676250164827098e+18,12.034709883268144,-0.01588298152019485,-0.22021863030814803,-0.7730511229585972
2026-01-05 14:56:56.499,1.767625016502734e+18,12.054734130859377,-0.1411098688840866,0.2162462919950485,-0.8185594081878662
2026-01-05 14:56:56.532,1.7676250165427973e+18,12.09479736328125,-0.01588298152019485,0.2162462919950485,-0.8185594081878662
2026-01-05 14:56:56.565,1.7676250165828713e+18,12.134871337890624,0.1093448773026466,0.588263213634491,-1.1129964590072632
2026-01-05 14:56:56.598,1.7676250166229325e+18,12.174932373046875,0.140499010682106,0.646906316280365,-1.1777481436729431
2026-01-05 14:56:56.631,1.7676250166630003e+18,12.215000244140626,0.140499010682106,0.646906316280365,-1.1777481436729431
2026-01-05 14:56:56.664,1.767625016683037e+18,12.235036865234376,0.140499010682106,1.1814133822917938,-1.158811330795288
2026-01-05 14:56:56.697,1.7676250167030735e+18,12.255073486328126,0.0959058403968811,1.1814133822917938,-1.158811330795288
2026-01-05 14:56:56.730,1.767625016743136e+18,12.295135986328123,0.0861319974064827,1.1814133822917938,-0.7641924023628235
2026-01-05 14:56:56.763,1.767625016783226e+18,12.33522607421875,0.07635813732342704,1.1020009517669678,-0.721584329246272
2026-01-05 14:56:56.796,1.7676250168133225e+18,12.365322509765624,0.07635813732342704,0.9703594446182251,-0.721584329246272
2026-01-05 14:56:56.829,1.767625016838379e+18,12.39037893113158,0.07147123292088504,0.8449798321203568,-0.721584329246272
2026-01-05 14:56:56.862,1.7676250168634355e+18,12.415435546875,0.07147123292088504,0.7195992469787598,-0.721584329246272
2026-01-05 14:56:56.895,1.767625016903534e+18,12.4555341796875,-0.0360410511493682,0.7195992469787598,-0.721584329246272
2026-01-05 14:56:56.928,1.7676250169436334e+18,12.49563330078125,-0.197920337319374,0.665232241153717,-0.720820963382721
2026-01-05 14:56:56.961,1.7676250169837187e+18,12.53571875,-0.197920337319374,0.608421802520752,-0.5210680365562439
2026-01-05 14:56:56.994,1.7676250170238157e+18,12.575815673828124,-0.197920337319374,0.6218608021736145,-0.4007275998592376
2026-01-05 14:56:57.027,1.767625017043902e+18,12.59590185546875,-0.1362229436635971,0.6255260109901428,-0.3524692356586456
2026-01-05 14:56:57.060,1.767625017063913e+18,12.615912841796876,-0.1362229436635971,0.6255260109901428,-0.3463605940341949
2026-01-05 14:56:57.093,1.767625017104005e+18,12.656005126953126,-0.1123992055654525,0.6255260109901428,-0.2638937830924988
2026-01-05 14:56:57.126,1.767625017144098e+18,12.69609814453125,-0.087353728711605,0.6255260109901428,-0.1527163088321685
2026-01-05 14:56:57.159,1.7676250171841823e+18,12.736182373046876,-0.087353728711605,0.6255260109901428,0.2547308206558227
2026-01-05 14:56:57.192,1.7676250172242511e+18,12.776251220703124,0.1374446749687194,0.3054326176643371,0.7257078886032104
2026-01-05 14:56:57.225,1.7676250172442903e+18,12.796290405273437,0.1374446749687194,0.3054326176643371,1.186300277709961
2026-01-05 14:56:57.258,1.7676250172643295e+18,12.81632958984375,0.1374446749687194,0.3054326176643371,1.6468926668167114
2026-01-05 14:56:57.291,1.7676250173044247e+18,12.8564248046875,0.1374446749687194,0.3054326176643371,2.110539436340332
2026-01-05 14:56:57.324,1.7676250173445174e+18,12.896517333984375,0.1374446749687194,0.3054326176643371,2.110539436340332
2026-01-05 14:56:57.357,1.767625017384609e+18,12.936609130859376,0.4795292317867279,0.180816113948822,2.110539436340332
2026-01-05 14:56:57.390,1.7676250174046454e+18,12.95664546345842,0.5543605160496892,-0.3793494971222787,1.8823803754195991
2026-01-05 14:56:57.423,1.7676250174246817e+18,12.976681640625,0.5894849896430969,-0.9395107626914978,1.654223084449768
2026-01-05 14:56:57.456,1.7676250174647572e+18,13.01675732421875,0.6291912198066711,-1.4407256841659546,1.4666874408721924
2026-01-05 14:56:57.489,1.7676250175048463e+18,13.056846435546875,0.6291912198066711,-1.4407256841659546,1.273043155670166
2026-01-05 14:56:57.522,1.767625017534934e+18,13.086933959960938,0.5894849896430969,-1.4407256841659546,1.0873401165008545
2026-01-05 14:56:57.555,1.767625017585016e+18,13.13701611328125,0.4312708675861358,-1.2754865884780884,0.6224716901779175
2026-01-05 14:56:57.588,1.767625017605053e+18,13.157053100585937,0.23396139033138746,-0.9950994551181793,0.3335324265062809
2026-01-05 14:56:57.621,1.76762501762509e+18,13.177090087890624,0.0366519130766391,-0.7147123217582703,0.0445931628346443
2026-01-05 14:56:57.654,1.7676250176651564e+18,13.21715625,-0.0507018156349659,-0.2932153046131134,-0.413555771112442
2026-01-05 14:56:57.687,1.767625017705218e+18,13.257218017578126,-0.0507018156349659,-0.2932153046131134,-0.5247332453727722
2026-01-05 14:56:57.720,1.7676250177452995e+18,13.297299560546875,-0.0507018156349659,-0.2932153046131134,-0.5247332453727722
2026-01-05 14:56:57.753,1.7676250177853622e+18,13.337362060546877,0.0378736443817615,-0.5406157374382019,-0.5247332453727722
2026-01-05 14:56:57.786,1.7676250178053947e+18,13.357394575618287,0.21838361975510512,-0.7495308461647143,0.18172967592782374
2026-01-05 14:56:57.819,1.7676250178254272e+18,13.37742724609375,0.21838361975510512,-0.7495308461647143,0.18172967592782374
2026-01-05 14:56:57.852,1.7676250178654973e+18,13.417497314453126,0.21838361975510512,-0.7495308461647143,0.18172967592782374
2026-01-05 14:56:57.885,1.7676250179055708e+18,13.45757080078125,0.12308935075998303,-0.656069278717041,-0.25625796616077423
2026-01-05 14:56:57.918,1.767625017945635e+18,13.497635009765624,0.12308935075998303,-0.5968153476715088,-0.25625796616077423
2026-01-05 14:56:57.951,1.7676250179656748e+18,13.517674682617187,0.0195476878434419,-0.14813482761383057,-0.3830125033855438
2026-01-05 14:56:57.984,1.7676250179857144e+18,13.53771435546875,-0.140499010682106,0.3005456924438476,-0.3830125033855438
2026-01-05 14:56:58.017,1.7676250180258056e+18,13.5778056640625,0.12308935075998303,0.3005456924438476,-1.1148290634155271
2026-01-05 14:56:58.050,1.767625018065883e+18,13.6178828125,-0.1612684279680252,0.6188064813613892,-1.214400053024292
2026-01-05 14:56:58.083,1.767625018105958e+18,13.6579580078125,-0.271224170923233,0.7018841505050659,-1.3029755353927612
2026-01-05 14:56:58.116,1.767625018146033e+18,13.698032958984374,-0.2968799799695968,0.7018841505050659,-1.4593570232391355
2026-01-05 14:56:58.149,1.7676250181660728e+18,13.718072920315965,-0.1612684279680252,1.1801916360855105,-1.4593570232391355
2026-01-05 14:56:58.182,1.767625018186113e+18,13.738113037109375,-0.1612684279680252,1.1801916360855105,-1.4593570232391355
2026-01-05 14:56:58.215,1.7676250182262036e+18,13.77820361328125,-0.0739146918058395,1.1801916360855105,-1.074512004852295
2026-01-05 14:56:58.248,1.767625018266301e+18,13.818301025390625,-0.0739146918058395,0.7660250067710876,-0.9340129494667052
2026-01-05 14:56:58.281,1.7676250183064077e+18,13.85840771484375,-0.0733038261532783,0.2816088795661926,-0.9340129494667052
2026-01-05 14:56:58.314,1.7676250183465126e+18,13.8985126953125,-0.0733038261532783,0.1466076523065567,-0.8881980776786804
2026-01-05 14:56:58.347,1.7676250183666068e+18,13.91860693359375,-0.0812450796365737,0.0818559452891349,-0.8326093554496765
2026-01-05 14:56:58.380,1.7676250183866186e+18,13.93861865234375,-0.1221730485558509,0.067195177078247,-0.8326093554496765
2026-01-05 14:56:58.413,1.7676250184266885e+18,13.9786884765625,-0.17501289397478098,0.067195177078247,-0.8210029006004333
2026-01-05 14:56:58.446,1.7676250184667855e+18,14.01878564453125,-0.17501289397478098,0.0818559452891349,-0.7299839854240417
2026-01-05 14:56:58.479,1.767625018496891e+18,14.048890991210936,-0.17501289397478098,0.26939157396554947,-0.5403103083372116
2026-01-05 14:56:58.512,1.7676250185219459e+18,14.073945861816405,-0.1588249653577804,0.3842342384159565,-0.4427245929837227
2026-01-05 14:56:58.545,1.7676250185470008e+18,14.099000732421874,-0.1588249653577804,0.4990769028663635,-0.3451388776302337
2026-01-05 14:56:58.578,1.767625018587162e+18,14.139162109375,-0.15347989276051519,0.4990769028663635,-0.2687807083129883
2026-01-05 14:56:58.611,1.767625018627255e+18,14.179255126953125,-0.1319468915462494,0.4990769028663635,-0.0048869219608604
2026-01-05 14:56:58.644,1.7676250186673398e+18,14.21933984375,0.0329867228865623,0.3225368559360504,0.2394591718912124
2026-01-05 14:56:58.677,1.7676250187074173e+18,14.259417236328124,0.12858750127014576,0.2040289938449859,0.9443976879119872
2026-01-05 14:56:58.710,1.7676250187274668e+18,14.279466752572056,0.12858750127014576,0.2040289938449859,1.3399344527428667
2026-01-05 14:56:58.743,1.7676250187475162e+18,14.29951611328125,0.12858750127014576,0.2040289938449859,1.7354681491851809
2026-01-05 14:56:58.776,1.7676250187876134e+18,14.339613525390623,0.1514945775270462,0.2040289938449859,1.948660135269165
2026-01-05 14:56:58.809,1.76762501882772e+18,14.379719970703125,0.2241875380277633,0.2040289938449859,1.948660135269165
2026-01-05 14:56:58.842,1.767625018867956e+18,14.4199560546875,0.4996877610683441,-0.2687807083129883,1.948660135269165
2026-01-05 14:56:58.875,1.7676250188879951e+18,14.439995316985408,0.6032298200122963,-0.7990138235603673,1.7577640162382904
2026-01-05 14:56:58.908,1.7676250189080343e+18,14.460034423828125,0.7067710757255554,-1.3292428255081177,1.5668693780899048
2026-01-05 14:56:58.941,1.7676250189481444e+18,14.500144287109377,0.7183775305747986,-1.5827518701553345,1.3939944505691528
2026-01-05 14:56:58.974,1.767625018988249e+18,14.5402490234375,0.7183775305747986,-1.5827518701553345,1.047023057937622
2026-01-05 14:56:59.007,1.7676250190283548e+18,14.580354736328124,0.7183775305747986,-1.5827518701553345,0.808174729347229
2026-01-05 14:56:59.040,1.767625019068469e+18,14.620468994140625,0.5662720799446106,-1.4391984939575195,0.5894849896430969
2026-01-05 14:56:59.073,1.7676250190885133e+18,14.640513305664062,0.38179077953100204,-1.154840737581253,0.3414736874401569
2026-01-05 14:56:59.106,1.7676250191085576e+18,14.6605576171875,0.1973094791173935,-0.8704829812049866,0.0934623852372169
2026-01-05 14:56:59.139,1.76762501914863e+18,14.700630126953126,0.0537561401724815,-0.7037167549133301,-0.1527163088321685
2026-01-05 14:56:59.172,1.767625019188725e+18,14.74072509765625,0.0226020142436027,-0.6823364496231079,-0.384845107793808
2026-01-05 14:56:59.205,1.767625019228834e+18,14.780833984375,0.0226020142436027,-0.5827654600143433,-0.384845107793808
2026-01-05 14:56:59.238,1.7676250192689462e+18,14.8209462890625,0.0226020142436027,-0.504574716091156,-0.384845107793808
2026-01-05 14:56:59.271,1.767625019288996e+18,14.84099609375,0.15332717821002004,-0.5021312385797501,-0.12736540287733078
2026-01-05 14:56:59.304,1.767625019309046e+18,14.8610458984375,0.2840523421764374,-0.5021312385797501,-0.12736540287733078
2026-01-05 14:56:59.337,1.7676250193491256e+18,14.901125732421876,0.2840523421764374,-0.5021312385797501,-0.12736540287733078
2026-01-05 14:56:59.370,1.7676250193892088e+18,14.941208740234377,0.2840523421764374,-0.6252205818891525,-0.1490511149168014
2026-01-05 14:56:59.403,1.7676250194292925e+18,14.98129248046875,0.0592539273202419,-0.6252205818891525,-0.271224170923233
2026-01-05 14:56:59.436,1.7676250194493353e+18,15.001335205078124,-0.007635815069079399,-0.6252205818891525,-0.4153883755207062
2026-01-05 14:56:59.469,1.767625019469378e+18,15.0213779296875,-0.0745255574584007,-0.4294382631778717,-0.5271766930818558
2026-01-05 14:56:59.502,1.7676250195094536e+18,15.06145361328125,-0.2235766798257827,0.2645046412944793,-0.5271766930818558
2026-01-05 14:56:59.535,1.7676250195495386e+18,15.10153857421875,-0.2235766798257827,0.2645046412944793,-1.0543533563613892
2026-01-05 14:56:59.568,1.7676250195896259e+18,15.1416259765625,-0.2235766798257827,0.2645046412944793,-1.079093360306897
2026-01-05 14:56:59.601,1.767625019629701e+18,15.181701171875,-0.0464257597923278,0.2443460971117019,-1.103833556175232
2026-01-05 14:56:59.634,1.7676250196497454e+18,15.201745405650955,-0.0464257597923278,0.2443460971117019,-1.079093360306897
2026-01-05 14:56:59.667,1.7676250196697897e+18,15.221789794921875,-0.0342084541916847,0.2443460971117019,-1.0543533563613892
2026-01-05 14:56:59.700,1.767625019709893e+18,15.26189306640625,-0.0342084541916847,0.9584475755691528,-1.0366383790969849
2026-01-05 14:56:59.733,1.7676250197500088e+18,15.3020087890625,-0.0342084541916847,0.9584475755691528,-0.7318165898323059
2026-01-05 14:56:59.766,1.7676250197901176e+18,15.34211767578125,0.0403171069920063,0.9584475755691528,-0.7232644557952881
2026-01-05 14:56:59.799,1.7676250198302216e+18,15.3822216796875,0.0447458792477846,0.4447098970413208,-0.7064656615257263
2026-01-05 14:56:59.832,1.7676250198552863e+18,15.407286193847657,0.0447458792477846,0.3455970138311386,-0.7064656615257263
2026-01-05 14:56:59.865,1.7676250198803507e+18,15.432350708007812,0.0403171069920063,0.2464841306209564,-0.7208209931850433
2026-01-05 14:56:59.898,1.767625019920452e+18,15.4724521484375,-0.0433714310638606,0.10293079726397991,-0.7064656615257263
2026-01-05 14:56:59.931,1.7676250199505147e+18,15.5025146484375,-0.1508837193250656,-0.056810814369455565,-0.6896668672561646
2026-01-05 14:56:59.964,1.7676250199906168e+18,15.542616943359375,-0.1918116807937622,-0.056810814369455565,-0.637132465839386
2026-01-05 14:56:59.997,1.7676250200106836e+18,15.562683760055549,-0.19822577387094495,-0.0678060427308082,-0.5873471343397961
2026-01-05 14:57:00.030,1.7676250200307507e+18,15.582750732421877,-0.19822577387094495,-0.056810814369455565,-0.5375614166259766
2026-01-05 14:57:00.063,1.7676250200809009e+18,15.63290087890625,-0.19822577387094495,0.0323758572340011,-0.479834645986557
2026-01-05 14:57:00.096,1.7676250201109373e+18,15.662937255859376,-0.1539380401372909,0.0378736443817615,-0.4599815309047699
2026-01-05 14:57:00.129,1.7676250201510474e+18,15.70304736328125,-0.0763581544160842,0.1255320455095127,-0.3029891550540924
2026-01-05 14:57:00.162,1.767625020191165e+18,15.7431650390625,-0.0568104684352874,0.1255320455095127,-0.0952949747443199
2026-01-05 14:57:00.195,1.7676250202112118e+18,15.763211747678353,0.028100511201471723,0.1255320455095127,0.011301420584201874
2026-01-05 14:57:00.228,1.7676250202312584e+18,15.78325830078125,0.0299323964864015,-0.0714712366461753,0.1178969889879226
2026-01-05 14:57:00.261,1.767625020271339e+18,15.823339111328124,0.0299323964864015,-0.3142901733517646,0.503963828086853
2026-01-05 14:57:00.294,1.7676250203114435e+18,15.863443359375,0.0299323964864015,-0.3817907869815826,1.256549835205078
2026-01-05 14:57:00.327,1.7676250203415373e+18,15.893537109375,-0.04795291647315025,-0.41508293151855463,1.8270979867223107
2026-01-05 14:57:00.360,1.7676250203916173e+18,15.9436171875,-0.04795291647315025,-0.41508293151855463,1.8270979867223107
2026-01-05 14:57:00.393,1.767625020411658e+18,15.963657958984374,-0.04795291647315025,-0.41508293151855463,1.8270979867223107
2026-01-05 14:57:00.426,1.7676250204316987e+18,15.98369873046875,0.0830776765942573,-0.4483750760555267,1.8182404854660037
2026-01-05 14:57:00.459,1.767625020471771e+18,16.02377099609375,0.735329057803992,-1.2211196422576904,1.8093829154968264
2026-01-05 14:57:00.492,1.767625020511849e+18,16.063848876953124,0.735329057803992,-2.32922911643982,1.4471397399902344
2026-01-05 14:57:00.525,1.767625020551936e+18,16.10393603515625,0.7367416814202395,-2.6810874938964844,1.131933331489563
2026-01-05 14:57:00.558,1.767625020571977e+18,16.12397700644516,0.735329057803992,-2.7259862422943115,0.9184350732937892
2026-01-05 14:57:00.591,1.767625020592018e+18,16.144017822265624,0.7339164232291886,-2.7259862422943115,0.7049384713172913
2026-01-05 14:57:00.624,1.767625020632122e+18,16.1841220703125,0.7325037886543851,-2.7259862422943115,0.2064724564552307
2026-01-05 14:57:00.657,1.7676250206722207e+18,16.224220703125,0.7183775305747986,-2.674368143081665,-0.3781255781650543
2026-01-05 14:57:00.690,1.7676250207023137e+18,16.254313720703124,0.6904304474592209,-2.460565209388733,-0.6640105247497559
2026-01-05 14:57:00.723,1.7676250207523973e+18,16.304397216796875,0.6624833643436432,-2.460565209388733,-0.6640105247497559
2026-01-05 14:57:00.756,1.76762502077244e+18,16.324440185546877,0.6345362812280655,-2.460565209388733,-0.7425067126750946
2026-01-05 14:57:00.789,1.767625020792483e+18,16.344483154296874,0.6065891981124878,-2.2678372859954834,-0.6640105247497559
2026-01-05 14:57:00.822,1.7676250208325501e+18,16.384550048828125,0.44165557622909546,-2.2678372859954834,-0.6359107494354248
2026-01-05 14:57:00.855,1.7676250208726323e+18,16.42463232421875,0.44165557622909546,-1.8099937438964844,-0.5965099334716797
2026-01-05 14:57:00.888,1.7676250209027246e+18,16.454724487304688,0.44165557622909546,-1.8099937438964844,-0.6359107494354248
2026-01-05 14:57:00.921,1.7676250209428209e+18,16.494820922851563,0.5020289721788925,-1.8099937438964844,-0.6359107494354248
2026-01-05 14:57:00.954,1.7676250209678723e+18,16.51987215624936,0.5020289721788925,-1.9433139520233698,-0.646906316280365
2026-01-05 14:57:00.987,1.7676250209929236e+18,16.544923583984374,0.5020289721788925,-1.9433139520233698,-0.646906316280365
2026-01-05 14:57:01.020,1.767625021033015e+18,16.58501513671875,0.3292563557624817,-1.9433139520233698,-0.7756451177985242
2026-01-05 14:57:01.053,1.7676250210730831e+18,16.625083251953125,-0.442266434431076,-1.4257594347000122,-0.952338933944702
2026-01-05 14:57:01.086,1.7676250211131625e+18,16.66516259765625,-0.5803219676017761,-1.4043792486190796,-0.6603453159332275
2026-01-05 14:57:01.119,1.7676250211332416e+18,16.68524169921875,-0.5803219676017761,-1.4043792486190796,-0.6603453159332275
2026-01-05 14:57:01.152,1.767625021153252e+18,16.705252197265626,-0.5803219676017761,-1.4043792486190796,-0.6603453159332275
2026-01-05 14:57:01.185,1.7676250212033843e+18,16.75538427734375,-0.5803219676017761,-1.74982351064682,-0.5198463201522827
2026-01-05 14:57:01.218,1.767625021233443e+18,16.785443115234376,-0.4599815309047699,-1.7727309465408323,-0.4810563623905182
2026-01-05 14:57:01.251,1.767625021263547e+18,16.815546752929688,-0.3805690407752991,-2.0274617075920105,-0.2715296074748039
2026-01-05 14:57:01.284,1.767625021313631e+18,16.865630859375,-0.3805690407752991,-2.3429735898971558,-0.1905899494886398
2026-01-05 14:57:01.317,1.767625021338695e+18,16.890694727001136,-0.15195361258761608,-2.3429735898971558,-0.1728748679161071
2026-01-05 14:57:01.350,1.7676250213637588e+18,16.9157587890625,-0.0543670058250427,-2.3429735898971558,-0.1728748679161071
2026-01-05 14:57:01.383,1.7676250213938125e+18,16.9458125,-0.0543670058250427,-2.109928607940674,-0.15958866208319747
2026-01-05 14:57:01.416,1.767625021433922e+18,16.985922119140625,-0.0543670058250427,-2.0476202964782715,-0.1728748679161071
2026-01-05 14:57:01.449,1.7676250214740262e+18,17.026026123046876,-0.0934623852372169,-1.8759671449661253,-0.2602286040782928
2026-01-05 14:57:01.482,1.7676250215141302e+18,17.066130126953126,-0.0971275717020034,-1.8496999740600584,-0.3469714522361755
2026-01-05 14:57:01.515,1.767625021534173e+18,17.08617280723304,-0.16554474545953313,-1.7831152652308193,-0.39614629447741073
2026-01-05 14:57:01.548,1.7676250215542154e+18,17.10621533203125,-0.2339613884687423,-1.690264105796814,-0.39614629447741073
2026-01-05 14:57:01.581,1.7676250215943196e+18,17.146319580078124,-0.3579670190811157,-1.5968017578125,-0.39614629447741073
2026-01-05 14:57:01.614,1.7676250216344256e+18,17.186425537109375,-0.3634648323059082,-1.2571606636047363,-0.2718350291252136
2026-01-05 14:57:01.647,1.767625021674526e+18,17.22652587890625,-0.3634648323059082,-0.9321803450584412,-0.2480112910270691
2026-01-05 14:57:01.680,1.7676250216946196e+18,17.24661962890625,-0.3634648323059082,-0.8497135639190674,-0.2425135001540184
2026-01-05 14:57:01.713,1.7676250217146342e+18,17.26663427734375,-0.3689626157283783,-0.8032878041267395,-0.1734857261180877
2026-01-05 14:57:01.746,1.7676250217647836e+18,17.31678356933594,-0.3500257730484009,-0.7684684991836548,-0.16920967400074
2026-01-05 14:57:01.779,1.7676250217948232e+18,17.3468232421875,-0.3500257730484009,-0.7684684991836548,-0.1582140922546386
2026-01-05 14:57:01.812,1.7676250218349338e+18,17.386933837890624,-0.3952298164367676,-0.7684684991836548,0.0164933614432811
2026-01-05 14:57:01.845,1.7676250218750497e+18,17.4270498046875,-0.3952298164367676,-1.10444438457489,0.2620611786842346
2026-01-05 14:57:01.878,1.7676250218950973e+18,17.447097367798854,-0.3292563557624817,-1.1310171323548832,0.482889823341269
2026-01-05 14:57:01.911,1.7676250219151447e+18,17.467144775390626,-0.3292563557624817,-1.1575896739959717,0.7037167549133301
2026-01-05 14:57:01.944,1.767625021955256e+18,17.507256103515626,-0.3139847218990326,-1.3115277290344238,1.3829989433288574
2026-01-05 14:57:01.977,1.767625021995362e+18,17.547362060546874,-0.2119702398777008,-1.3115277290344238,1.9871445894241333
2026-01-05 14:57:02.010,1.7676250220354476e+18,17.587447509765624,0.0415388382971286,-1.3115277290344238,1.9871445894241333
2026-01-05 14:57:02.043,1.7676250220755459e+18,17.6275458984375,0.3573561608791351,-1.0610729455947876,1.9871445894241333
2026-01-05 14:57:02.076,1.767625022095604e+18,17.647604003906253,0.6643159538507462,-1.0610729455947876,1.8451184630393982
2026-01-05 14:57:02.109,1.767625022115662e+18,17.667662109375,0.6892741067354512,-1.0610729455947876,1.6267341375350952
2026-01-05 14:57:02.142,1.7676250221557752e+18,17.707775146484376,0.7017532799853724,-1.6267341375350952,1.3255776166915894
2026-01-05 14:57:02.175,1.7676250221958894e+18,17.747889404296874,0.7142324532352936,-2.1502456665039062,1.1007791757583618
2026-01-05 14:57:02.208,1.767625022235995e+18,17.787994873046873,0.7267115296776461,-2.1502456665039062,1.0299187898635864
2026-01-05 14:57:02.241,1.767625022256039e+18,17.808038940429686,0.7891070086969775,-2.1502456665039062,0.926377147436142
2026-01-05 14:57:02.274,1.767625022276083e+18,17.8280830078125,0.7347181737422943,-1.853976011276245,0.8228355050086975
2026-01-05 14:57:02.307,1.7676250223262367e+18,17.878236572265624,0.6304129362106323,-1.5531248450279236,0.5595525503158569
2026-01-05 14:57:02.340,1.7676250223563054e+18,17.908305419921874,0.5377141237258911,-1.4422528743743896,0.3830125033855438
2026-01-05 14:57:02.373,1.7676250223864082e+18,17.938408203125,0.4450153112411499,-1.0821477770805359,0.1316414605826139
2026-01-05 14:57:02.406,1.7676250224365204e+18,17.9885205078125,0.1514945775270462,-0.5082398653030396,-0.1637118905782699
2026-01-05 14:57:02.439,1.7676250224565699e+18,18.008569702148435,0.09162978455424306,-0.31581732258200645,-0.29810223728418345
2026-01-05 14:57:02.472,1.767625022476619e+18,18.02861889648437,0.0317649915814399,-0.1233947798609733,-0.432492583990097
2026-01-05 14:57:02.505,1.767625022516706e+18,18.0687060546875,-0.0006108652451075,0.1777617931365966,-0.432492583990097
2026-01-05 14:57:02.538,1.7676250225568113e+18,18.10881127929688,-0.0006108652451075,0.1777617931365966,-0.432492583990097
2026-01-05 14:57:02.571,1.767625022596896e+18,18.14889599609375,-0.0006108652451075,0.1777617931365966,-0.2364048510789871
2026-01-05 14:57:02.604,1.7676250226369818e+18,18.18898168945313,0.0549778714776039,-0.0103847095742821,-0.1368338167667389
2026-01-05 14:57:02.637,1.7676250226570268e+18,18.209026777717952,0.0549778714776039,-0.19730875454292873,-0.1368338167667389
2026-01-05 14:57:02.670,1.7676250226770721e+18,18.22907202148437,0.0833832158729121,-0.19730875454292873,-0.1368338167667389
2026-01-05 14:57:02.703,1.767625022717172e+18,18.269171875,0.0833832158729121,-0.19730875454292873,-0.694553792476654
2026-01-05 14:57:02.736,1.7676250227472927e+18,18.29929248046875,0.0549778714776039,-0.04214969277381901,-0.694553792476654
2026-01-05 14:57:02.769,1.7676250227974152e+18,18.349415283203125,-0.0164933614432811,0.5455026626586914,-0.7874053120613098
2026-01-05 14:57:02.802,1.7676250228175007e+18,18.36950073242188,-0.2296853363513946,0.8411614298820496,-0.8008443117141724
2026-01-05 14:57:02.835,1.7676250228375086e+18,18.389508544921878,-0.2296853363513946,0.8411614298820496,-0.8423831462860107
2026-01-05 14:57:02.868,1.7676250228775916e+18,18.429591552734376,-0.2296853363513946,0.8411614298820496,-0.8423831462860107
2026-01-05 14:57:02.901,1.7676250229176755e+18,18.46967553710937,-0.0116064399480819,0.8491026759147644,-0.8423831462860107
2026-01-05 14:57:02.934,1.7676250229577672e+18,18.50976708984375,0.2186897546052932,0.8491026759147644,-0.7116580009460449
2026-01-05 14:57:02.967,1.7676250229978447e+18,18.5498447265625,0.2645046412944793,1.271210551261902,-0.6713408827781677
2026-01-05 14:57:03.000,1.767625023022917e+18,18.574916931152345,0.26801712810993195,1.6070336997509003,-0.6189592033624649
2026-01-05 14:57:03.033,1.7676250230479892e+18,18.599989135742184,0.26801712810993195,1.6070336997509003,-0.5665775239467621
2026-01-05 14:57:03.066,1.7676250230780516e+18,18.63005151367188,0.26801712810993195,1.6070336997509003,-0.5326744914054871
2026-01-05 14:57:03.099,1.7676250231181486e+18,18.670148681640622,0.1997529417276382,1.1142182350158691,-0.5106833577156067
2026-01-05 14:57:03.132,1.767625023158256e+18,18.710256103515626,0.17989981919527048,1.1142182350158691,-0.5082398653030396
2026-01-05 14:57:03.165,1.7676250231833306e+18,18.735330591217753,0.1663080112942865,1.1142182350158691,-0.502436784966617
2026-01-05 14:57:03.198,1.7676250232084052e+18,18.7604052734375,0.1527163088321685,1.020602490655791,-0.4764748811721802
2026-01-05 14:57:03.231,1.7676250232384428e+18,18.79044287109375,0.1136209368705749,1.091616153717041,-0.47219884395599365
2026-01-05 14:57:03.264,1.767625023278546e+18,18.8305458984375,0.0122173046693205,1.091616153717041,-0.4306600093841553
2026-01-05 14:57:03.297,1.7676250233186532e+18,18.87065307617188,-0.0262672062963247,1.0170906782150269,-0.3555235862731933
2026-01-05 14:57:03.330,1.7676250233587597e+18,18.910759765625,-0.051312681287527,0.977384388446808,-0.3555235862731933
2026-01-05 14:57:03.363,1.767625023378812e+18,18.930811967426223,-0.051312681287527,0.9752462373362712,-0.3555235862731933
2026-01-05 14:57:03.396,1.7676250233988641e+18,18.950864013671875,-0.051312681287527,0.9752462373362712,-0.3448335674998837
2026-01-05 14:57:03.429,1.7676250234389727e+18,18.99097265625,-0.0415388382971286,0.9752462373362712,-0.3448335674998837
2026-01-05 14:57:03.462,1.7676250234790556e+18,19.0310556640625,-0.0232128798961639,1.1484266519546509,-0.2858849465847015
2026-01-05 14:57:03.495,1.767625023519161e+18,19.0711611328125,-0.0103847095742821,1.1484266519546509,-0.1716531366109848
2026-01-05 14:57:03.528,1.7676250235592776e+18,19.111277587890623,-0.0091629782691597,1.1484266519546509,-0.119118720293045
2026-01-05 14:57:03.561,1.767625023579326e+18,19.131326049804684,0.1172861303202808,1.1053606271743774,-0.035124750807881355
2026-01-05 14:57:03.594,1.7676250235993746e+18,19.15137451171875,0.2437352389097213,0.913243532180786,0.0488692186772823
2026-01-05 14:57:03.627,1.7676250236394624e+18,19.19146240234375,0.2596177160739898,0.913243532180786,0.4795292317867279
2026-01-05 14:57:03.660,1.7676250236795558e+18,19.231555908203124,0.2596177160739898,0.913243532180786,1.3170254230499268
2026-01-05 14:57:03.693,1.7676250237196357e+18,19.2716357421875,0.2596177160739898,1.0922271013259888,2.120313167572021
2026-01-05 14:57:03.726,1.7676250237396933e+18,19.291693315103306,0.2553416788578033,1.1856894493103027,2.31640100479126
2026-01-05 14:57:03.759,1.7676250237597507e+18,19.311750732421874,0.2553416788578033,1.1856894493103027,2.31640100479126
2026-01-05 14:57:03.792,1.7676250237998723e+18,19.351872314453125,0.2495383649496542,1.1856894493103027,2.31640100479126
2026-01-05 14:57:03.825,1.7676250238399588e+18,19.391958740234376,0.2272418737411499,0.3915646076202392,1.7513506412506104
2026-01-05 14:57:03.858,1.76762502388006e+18,19.43205981445313,0.2270891554653644,-0.6446155458688736,1.5711454153060913
2026-01-05 14:57:03.891,1.7676250239201554e+18,19.4721552734375,0.2270891554653644,-0.6446155458688736,1.4147639274597168
2026-01-05 14:57:03.924,1.767625023945219e+18,19.49721911621094,0.2168571650981903,-0.6446155458688736,1.2594514191150665
2026-01-05 14:57:03.957,1.767625023970283e+18,19.522282958984377,0.1936442852020263,-0.6142250001430511,1.1041389107704163
2026-01-05 14:57:03.990,1.7676250240003305e+18,19.55233056640625,-0.070249505341053,-0.5845980644226074,0.9266825914382936
2026-01-05 14:57:04.023,1.7676250240404367e+18,19.592436767578125,-0.4300491213798523,0.0781907513737678,0.3640756905078888
2026-01-05 14:57:04.056,1.7676250240805181e+18,19.63251806640625,-0.4300491213798523,0.2687807083129883,-0.1350012123584747
2026-01-05 14:57:04.089,1.7676250241206252e+18,19.672625244140622,-0.4300491213798523,0.361632227897644,-0.4630358517169952
2026-01-05 14:57:04.122,1.767625024140674e+18,19.692673994500623,-0.32253725805141026,0.45478880034684405,-0.5986474111691186
2026-01-05 14:57:04.155,1.767625024160723e+18,19.712722900390624,-0.2150245606899261,0.45478880034684405,-0.7342600226402283
2026-01-05 14:57:04.188,1.7676250242008046e+18,19.7528046875,0.0543670058250427,0.45478880034684405,-0.7342600226402283
2026-01-05 14:57:04.221,1.767625024240914e+18,19.792913818359374,0.0543670058250427,0.098960168659687,-0.7342600226402283
2026-01-05 14:57:04.254,1.7676250242710108e+18,19.823010620117188,0.0543670058250427,-0.2541199326515198,-0.2767219543457031
2026-01-05 14:57:04.287,1.7676250242960507e+18,19.848050598144532,0.04520402848720548,-0.2886338233947754,-0.2058615833520889
2026-01-05 14:57:04.320,1.7676250243210906e+18,19.87309057617188,-0.070249505341053,-0.2886338233947754,-0.2058615833520889
2026-01-05 14:57:04.353,1.7676250243611725e+18,19.91317236328125,-0.070249505341053,-0.2886338233947754,-0.2058615833520889
2026-01-05 14:57:04.386,1.7676250244012654e+18,19.95326538085937,-0.070249505341053,0.1563815027475357,-0.6890559792518616
2026-01-05 14:57:04.419,1.767625024441345e+18,19.993344970703124,0.0305432621389627,0.912021815776825,-0.778853178024292
2026-01-05 14:57:04.452,1.7676250244814316e+18,20.033431640625,0.0305432621389627,1.4862351417541504,-0.9297369122505188
2026-01-05 14:57:04.485,1.767625024501476e+18,20.053476240610475,0.0305432621389627,1.4862351417541504,-1.0616823584552821
2026-01-05 14:57:04.518,1.767625024521521e+18,20.07352099609375,0.08063456567053072,1.4862351417541504,-1.0616823584552821
2026-01-05 14:57:04.551,1.7676250245607025e+18,20.112702392578125,0.08063456567053072,1.2611312866210938,-1.0616823584552821
2026-01-05 14:57:04.584,1.7676250246007882e+18,20.152788330078124,0.1380555480718612,1.246165156364441,-0.7867944240570068
2026-01-05 14:57:04.617,1.7676250246309563e+18,20.182956298828124,0.22754730284214014,1.120937705039978,-0.7867944240570068
2026-01-05 14:57:04.650,1.7676250246810335e+18,20.233033447265623,0.23793201148509974,1.246165156364441,-0.7806857824325562
2026-01-05 14:57:04.683,1.7676250247011154e+18,20.253115478515625,0.23793201148509974,1.2611312866210938,-0.7046330571174622
2026-01-05 14:57:04.716,1.7676250247311665e+18,20.28316650390625,0.23793201148509974,1.246165156364441,-0.6524040997028351
2026-01-05 14:57:04.749,1.767625024761227e+18,20.31322705078125,0.1869247704744339,1.120937705039978,-0.6212499737739563
2026-01-05 14:57:04.782,1.767625024801329e+18,20.353328857421875,0.0623082555830478,1.103833556175232,-0.5406157374382019
2026-01-05 14:57:04.815,1.7676250248414382e+18,20.393438232421875,0.0598647929728031,1.0265590846538544,-0.4819726645946502
2026-01-05 14:57:04.848,1.7676250248614886e+18,20.413488647460937,-0.0018325950950384556,0.9492846131324768,-0.4819726645946502
2026-01-05 14:57:04.881,1.767625024881539e+18,20.4335390625,-0.0659734457731247,0.9492846131324768,-0.4755585938692093
2026-01-05 14:57:04.914,1.7676250249216205e+18,20.473620361328123,-0.140499010682106,0.8338310718536377,-0.4691445231437683
2026-01-05 14:57:04.947,1.767625024961727e+18,20.51372705078125,-0.1863138973712921,0.8301658630371094,-0.4544837474822998
2026-01-05 14:57:04.980,1.7676250249918223e+18,20.543822387695315,-0.19456027074730758,0.7122688889503479,-0.44226644933223724
2026-01-05 14:57:05.013,1.7676250250419228e+18,20.5939228515625,-0.19456027074730758,0.4306600093841553,-0.4196644127368927
2026-01-05 14:57:05.046,1.7676250250619748e+18,20.61397480922215,-0.19456027074730758,0.4306600093841553,-0.398589484605283
2026-01-05 14:57:05.079,1.7676250250820265e+18,20.634026611328125,-0.19456027074730758,0.4306600093841553,-0.3775147199630737
2026-01-05 14:57:05.112,1.767625025132162e+18,20.684162109375002,-0.1148426681756973,0.7141014635562897,-0.2519819214940071
2026-01-05 14:57:05.145,1.7676250251621885e+18,20.7141884765625,-0.0925460830330848,0.7141014635562897,-0.1343903541564941
2026-01-05 14:57:05.178,1.7676250252022815e+18,20.754281494140624,-0.0647517144680023,0.7141014635562897,0.1062905490398407
2026-01-05 14:57:05.211,1.7676250252323743e+18,20.784374389648438,0.1203404515981674,0.5879577994346619,0.2296853363513946
2026-01-05 14:57:05.244,1.7676250252574228e+18,20.80942303466797,0.13164146058261395,0.3465133123099804,0.5766568034887314
2026-01-05 14:57:05.277,1.7676250252824717e+18,20.8344716796875,0.1350012123584747,0.3465133123099804,0.923628270626068
2026-01-05 14:57:05.310,1.7676250253225518e+18,20.8745517578125,0.1350012123584747,0.3465133123099804,1.7299703359603882
2026-01-05 14:57:05.343,1.7676250253626511e+18,20.914651123046877,0.2278527319431305,0.5577199459075928,2.20583438873291
2026-01-05 14:57:05.376,1.767625025402738e+18,20.954738037109376,0.4990769028663635,0.5577199459075928,2.20583438873291
2026-01-05 14:57:05.409,1.7676250254228165e+18,20.97481640625,0.6212499737739563,0.5577199459075928,2.20583438873291
2026-01-05 14:57:05.442,1.7676250254528497e+18,21.00484973144531,0.6212499737739563,0.1010981947183609,1.767538607120514
2026-01-05 14:57:05.475,1.767625025482892e+18,21.03489208984375,0.6212499737739563,-1.0555751323699951,1.6633861064910889
2026-01-05 14:57:05.508,1.7676250255229816e+18,21.074981689453125,0.6640105247497559,-1.1753047704696655,1.5845844745635986
2026-01-05 14:57:05.541,1.767625025563082e+18,21.11508203125,0.4819726645946502,-1.1924089193344116,1.3817771673202517
2026-01-05 14:57:05.574,1.7676250256031823e+18,21.155182373046877,0.4108068794012069,-1.215621829032898,1.103833556175232
2026-01-05 14:57:05.607,1.7676250256232172e+18,21.175217041015628,0.4108068794012069,-1.1924089193344116,0.8817840218544006
2026-01-05 14:57:05.640,1.7676250256432517e+18,21.195251708984376,0.157603234052658,-1.1924089193344116,0.6597344875335693
2026-01-05 14:57:05.673,1.7676250256933693e+18,21.245369384765624,-0.3512475192546844,-0.288633830845356,-0.20463985204696655
2026-01-05 14:57:05.706,1.767625025723417e+18,21.2754169921875,-0.35216382145881653,-0.0030543261673301,-0.5338962078094482
2026-01-05 14:57:05.739,1.7676250257634924e+18,21.315492431640624,-0.35216382145881653,-0.0030543261673301,-0.8374974948091947
2026-01-05 14:57:05.772,1.767625025803587e+18,21.355587158203125,-0.3512475192546844,-0.0030543261673301,-0.8374974948091947
2026-01-05 14:57:05.805,1.7676250258236273e+18,21.37562736367439,-0.22876957758497554,-0.2739719995766335,-0.8374974948091947
2026-01-05 14:57:05.838,1.7676250258436677e+18,21.39566772460937,-0.0867428630590438,-0.2739719995766335,-0.5167919993400574
2026-01-05 14:57:05.871,1.7676250258837463e+18,21.435746337890624,-0.0867428630590438,-0.5448917746543884,-0.5167919993400574
2026-01-05 14:57:05.904,1.7676250259238234e+18,21.4758232421875,-0.0867428630590438,-0.5448917746543884,-0.5167919993400574
2026-01-05 14:57:05.937,1.7676250259639089e+18,21.515908935546875,0.12217305228114131,-0.2577851414680481,-0.7024950087070465
2026-01-05 14:57:05.970,1.7676250259889644e+18,21.540964319319198,0.12217305228114131,-0.2503040628147325,-0.7501426846186493
2026-01-05 14:57:06.003,1.76762502601402e+18,21.566019897460937,-0.17501404855644387,0.27336218953132635,-0.797789990901947
2026-01-05 14:57:06.036,1.7676250260440553e+18,21.59605517578125,-0.0073303831741213,0.6035348773002625,-1.084896683692932
2026-01-05 14:57:06.069,1.7676250260841262e+18,21.63612622070313,0.0,0.6035348773002625,-1.084896683692932
2026-01-05 14:57:06.102,1.767625026124189e+18,21.67618896484375,-0.0073303831741213,0.6035348773002625,-1.084896683692932
2026-01-05 14:57:06.135,1.7676250261642637e+18,21.716263671875,-0.0073303831741213,0.4935791194438934,-0.9340129494667052
2026-01-05 14:57:06.168,1.7676250261843436e+18,21.736343505859374,0.0,0.4935791194438934,-0.7929030656814575
2026-01-05 14:57:06.201,1.767625026204351e+18,21.75635107421875,0.1221730485558509,0.4935791194438934,-0.789237916469574
2026-01-05 14:57:06.234,1.7676250262444365e+18,21.7964365234375,0.1221730485558509,1.2223412990570068,-0.7232644557952881
2026-01-05 14:57:06.267,1.7676250262845202e+18,21.83652026367188,0.1221730485558509,1.2223412990570068,-0.7232644557952881
2026-01-05 14:57:06.300,1.767625026324601e+18,21.87660107421875,0.1099557466804981,1.2223412990570068,-0.7257079184055328
2026-01-05 14:57:06.333,1.7676250263546808e+18,21.906680786132817,0.0897971913218498,0.7684684693813324,-0.7257079184055328
2026-01-05 14:57:06.366,1.7676250263847457e+18,21.936745722083582,0.07803791255582357,0.7684684693813324,-0.7257079184055328
2026-01-05 14:57:06.399,1.7676250264148106e+18,21.966810424804684,0.04612032603472465,0.7684684693813324,-0.7257079184055328
2026-01-05 14:57:06.432,1.7676250264448714e+18,21.996871337890624,-0.0207694191485643,0.7244861721992493,-0.6536257863044739
2026-01-05 14:57:06.465,1.7676250264849756e+18,22.0369755859375,-0.0592539273202419,0.7244861721992493,-0.6328563690185547
2026-01-05 14:57:06.498,1.7676250265250765e+18,22.077076416015625,-0.0592539273202419,0.7244861721992493,-0.6126978397369385
2026-01-05 14:57:06.531,1.7676250265451674e+18,22.09716748046875,-0.0836885422468185,0.5638286471366882,-0.5968153476715088
2026-01-05 14:57:06.564,1.7676250265651779e+18,22.117177734375,-0.0836885422468185,0.5638286471366882,-0.5406157374382019
2026-01-05 14:57:06.597,1.7676250266052541e+18,22.157254150390624,-0.1026253625750541,0.5638286471366882,-0.3885102868080139
2026-01-05 14:57:06.630,1.7676250266453627e+18,22.19736279296875,-0.107512280344963,0.5919284224510193,-0.3378084897994995
2026-01-05 14:57:06.663,1.7676250266754673e+18,22.22746716308594,-0.107512280344963,0.6649267971515656,-0.28741209208965296
2026-01-05 14:57:06.696,1.7676250267255798e+18,22.277579833984376,-0.1313360333442688,0.8906415104866028,-0.1679879426956176
2026-01-05 14:57:06.729,1.7676250267456753e+18,22.29767529296875,-0.107512280344963,0.8906415104866028,-0.0684169083833694
2026-01-05 14:57:06.762,1.7676250267656916e+18,22.317691650390625,-0.1056796908378601,0.8906415104866028,0.0800233483314514
2026-01-05 14:57:06.795,1.7676250268158188e+18,22.367818969726564,0.1252273768186569,0.4841107130050659,0.510988786816597
2026-01-05 14:57:06.828,1.7676250268458424e+18,22.397842529296877,0.30512718856334686,-0.0067195175215601,0.8772025108337402
2026-01-05 14:57:06.861,1.7676250268859325e+18,22.4379326171875,0.30512718856334686,-0.0067195175215601,1.6823228597640991
2026-01-05 14:57:06.894,1.7676250269160172e+18,22.468016967773437,0.30512718856334686,-0.0067195175215601,2.1737639904022217
2026-01-05 14:57:06.927,1.767625026946082e+18,22.49808197021484,0.30512718856334686,0.098960168659687,2.1737639904022217
2026-01-05 14:57:06.960,1.767625026976147e+18,22.52814697265625,0.30512718856334686,0.098960168659687,2.1737639904022217
2026-01-05 14:57:06.993,1.7676250270061875e+18,22.5581875,0.3799581825733185,0.098960168659687,1.8319848775863647
2026-01-05 14:57:07.026,1.7676250270462723e+18,22.598272216796875,0.7110471725463867,-0.8222246170043945,1.4758504629135132
2026-01-05 14:57:07.059,1.7676250270863642e+18,22.6383642578125,0.720820963382721,-1.6566665172576904,1.3616186380386353
2026-01-05 14:57:07.092,1.7676250271064184e+18,22.658418457031253,0.7452555894851685,-1.6566665172576904,1.2617421746253967
2026-01-05 14:57:07.125,1.7676250271264727e+18,22.67847265625,0.7452555894851685,-1.6566665172576904,1.1618657112121582
2026-01-05 14:57:07.158,1.767625027166589e+18,22.7185888671875,0.720820963382721,-1.6566665172576904,0.9083566069602966
2026-01-05 14:57:07.191,1.7676250272066824e+18,22.758682373046877,0.5546656250953674,-1.595579981803894,0.645684540271759
2026-01-05 14:57:07.224,1.7676250272467653e+18,22.798765380859376,0.1902844389852888,-1.2553280591964722,0.2620611786842346
2026-01-05 14:57:07.257,1.7676250272868452e+18,22.83884521484375,0.1902844389852888,-0.979827880859375,-0.2070833146572113
2026-01-05 14:57:07.290,1.767625027306882e+18,22.858882002359525,0.167377084493637,-0.9263771772384644,-0.3695728287656176
2026-01-05 14:57:07.323,1.767625027326919e+18,22.8789189453125,0.167377084493637,-0.9263771772384644,-0.5320636034011841
2026-01-05 14:57:07.356,1.7676250273770772e+18,22.9290771484375,0.1881465017795562,-0.9263771772384644,-0.5320636034011841
2026-01-05 14:57:07.389,1.7676250274071496e+18,22.959149658203124,0.1881465017795562,-1.120937705039978,-0.5320636034011841
2026-01-05 14:57:07.422,1.7676250274472402e+18,22.999240234375,0.1881465017795562,-1.1316278576850891,0.1664607748389244
2026-01-05 14:57:07.455,1.7676250274873114e+18,23.039311279296875,0.4068362414836883,-1.1423180103302002,0.1664607748389244
2026-01-05 14:57:07.488,1.7676250275073485e+18,23.05934851074219,0.4068362414836883,-1.1316278576850891,0.1664607748389244
2026-01-05 14:57:07.521,1.7676250275273859e+18,23.0793857421875,0.4068362414836883,-1.120937705039978,-0.0836885422468185
2026-01-05 14:57:07.554,1.767625027567456e+18,23.1194560546875,-0.1716531366109848,-0.7250970602035522,-0.1936442852020263
2026-01-05 14:57:07.587,1.7676250276075338e+18,23.159533935546875,-0.2107485085725784,-0.0232128798961639,-0.3048217594623565
2026-01-05 14:57:07.620,1.767625027647621e+18,23.19962109375,-0.2486221492290496,0.3286454975605011,-1.329853653907776
2026-01-05 14:57:07.653,1.7676250276676644e+18,23.21966447303708,-0.2535090744495392,0.3286454975605011,-1.329853653907776
2026-01-05 14:57:07.686,1.767625027687708e+18,23.2397080078125,-0.2535090744495392,0.3286454975605011,-1.4413361397525042
2026-01-05 14:57:07.719,1.7676250277277885e+18,23.27978857421875,-0.2535090744495392,0.3286454975605011,-1.4413361397525042
2026-01-05 14:57:07.752,1.767625027767869e+18,23.319868896484376,-0.1252273768186569,0.2333505302667617,-1.2767083644866943
2026-01-05 14:57:07.785,1.7676250278079386e+18,23.3599384765625,-0.0287106670439243,0.16523878679491466,-1.083064079284668
2026-01-05 14:57:07.818,1.7676250278480197e+18,23.400019775390625,0.0018325957935303,0.16523878679491466,-0.7629706859588623
2026-01-05 14:57:07.851,1.767625027868073e+18,23.42007307582892,0.0018325957935303,0.16523878679491466,-0.6557634188830609
2026-01-05 14:57:07.884,1.7676250278881262e+18,23.440126220703124,0.0018325957935303,0.0971275717020034,-0.6557634188830609
2026-01-05 14:57:07.917,1.767625027938277e+18,23.490277099609372,0.0,-0.0247400430962443,-0.6557634188830609
2026-01-05 14:57:07.950,1.7676250279683361e+18,23.520336181640623,-0.0061086523346603,-0.2015855312347412,-0.6621779203414917
2026-01-05 14:57:07.983,1.7676250280084424e+18,23.5604423828125,-0.1374446749687194,-0.2889392599463463,-0.6872234046459198
2026-01-05 14:57:08.016,1.7676250280385418e+18,23.590541748046874,-0.1841758713126182,-0.2889392599463463,-0.6872234046459198
2026-01-05 14:57:08.049,1.7676250280686188e+18,23.62061865234375,-0.1841758713126182,-0.2889392599463463,-0.6872234046459198
2026-01-05 14:57:08.082,1.7676250280986957e+18,23.650695556640628,-0.1841758713126182,-0.2828305959701538,-0.6056728959083557
2026-01-05 14:57:08.115,1.7676250281287578e+18,23.6807578125,-0.1841758713126182,-0.25045475363731384,-0.4092797040939331
2026-01-05 14:57:08.148,1.767625028168862e+18,23.720862060546875,-0.1753183305263519,-0.182648703455925,-0.1893682330846786
2026-01-05 14:57:08.181,1.767625028208965e+18,23.760965087890625,-0.1655444800853729,-0.1313360333442688,-0.0812450796365737
2026-01-05 14:57:08.214,1.7676250282340278e+18,23.786027807173344,-0.13866620673647476,-0.1313360333442688,0.03787410641712835
2026-01-05 14:57:08.247,1.7676250282590904e+18,23.81109033203125,-0.08674286678433415,-0.1313360333442688,0.15699236840009684
2026-01-05 14:57:08.280,1.767625028289118e+18,23.841117919921874,0.0097738439217209,-0.5302310585975647,0.3610213696956634
2026-01-05 14:57:08.313,1.7676250283291935e+18,23.881193359375,0.0097738439217209,-0.7568620443344116,0.5668829679489136
2026-01-05 14:57:08.346,1.767625028369289e+18,23.9212890625,0.0097738439217209,-0.779464066028595,1.3548991680145264
2026-01-05 14:57:08.379,1.7676250283993815e+18,23.951381591796878,-0.1191187240183353,-0.9007208347320557,1.7366898655891418
2026-01-05 14:57:08.412,1.7676250284244413e+18,23.97644128417969,-0.1191187240183353,-0.9007208347320557,2.0326540768146515
2026-01-05 14:57:08.445,1.767625028449501e+18,24.0015009765625,-0.1191187240183353,-0.9007208347320557,2.0326540768146515
2026-01-05 14:57:08.478,1.7676250284896074e+18,24.041607421875,0.1111774742603302,-1.0445796251296997,2.0326540768146515
2026-01-05 14:57:08.511,1.7676250285296863e+18,24.081686279296875,0.5320636034011841,-1.6475036144256592,1.774563550949097
2026-01-05 14:57:08.544,1.7676250285697818e+18,24.12178173828125,0.56547788561708,-2.3689353466033936,1.38849675655365
2026-01-05 14:57:08.577,1.7676250285998807e+18,24.151880737304687,0.5821850267250279,-2.745045089164152,1.1273518204689026
2026-01-05 14:57:08.610,1.767625028624939e+18,24.17693905075315,0.5988921678329759,-2.745045089164152,0.9271415191151557
2026-01-05 14:57:08.643,1.7676250286499976e+18,24.20199755859375,0.615599308940924,-2.7605916741297767,0.7269296646118164
2026-01-05 14:57:08.676,1.7676250286900897e+18,24.24208984375,0.6323064500488719,-2.7294986248016357,0.3524692356586456
2026-01-05 14:57:08.709,1.7676250287301757e+18,24.28217578125,,-2.6828591111109783,-0.11423180811107153
2026-01-05 14:57:08.742,1.7676250287702502e+18,24.322250244140623,,-2.5979335606098175,-0.11423180811107153
2026-01-05 14:57:08.775,1.7676250287953254e+18,24.347325561523434,0.8662069439888,-2.4902685582637787,-0.11423180811107153
2026-01-05 14:57:08.808,1.7676250288204006e+18,24.372400878906248,0.7263187766075134,-2.4364360570907593,0.0470366217195988
2026-01-05 14:57:08.841,1.7676250288504678e+18,24.4024677734375,0.5864306092262268,-2.386650562286377,0.0470366217195988
2026-01-05 14:57:08.874,1.7676250288905756e+18,24.44257568359375,0.5485569834709167,-2.0030272006988525,0.0470366217195988
2026-01-05 14:57:08.907,1.7676250289306716e+18,24.48267163085937,0.5864306092262268,-1.5595380509718992,-0.1960877478122711
2026-01-05 14:57:08.940,1.767625028970765e+18,24.52276513671875,0.5864306092262268,-1.5595380509718992,-0.5992587804794312
2026-01-05 14:57:08.973,1.7676250289907994e+18,24.542799482837747,0.6239984110581224,-1.5595380509718992,-0.5992587804794312
2026-01-05 14:57:09.006,1.767625029010834e+18,24.562833984375,0.7373143434524536,-1.8093829154968264,-0.5992587804794312
2026-01-05 14:57:09.039,1.76762502906099e+18,24.612989868164064,0.7373143434524536,-1.8093829154968264,-0.5992587804794312
2026-01-05 14:57:09.072,1.767625029091026e+18,24.64302587890625,0.7373143434524536,-1.8093829154968264,-0.5992587804794312
2026-01-05 14:57:09.105,1.7676250291311222e+18,24.6831220703125,0.5650503635406494,-1.380555510520935,-0.6597344875335693
2026-01-05 14:57:09.138,1.7676250291511626e+18,24.703162641993284,0.2932163776279793,-1.1530090753837,-0.6597344875335693
2026-01-05 14:57:09.171,1.7676250291712033e+18,24.723203369140624,0.0213802829384803,-0.9254608750343324,-0.6597344875335693
2026-01-05 14:57:09.204,1.7676250292213294e+18,24.77332958984375,-0.1838704422116279,-0.6954700946807861,-0.7186827459287165
2026-01-05 14:57:09.237,1.7676250292513615e+18,24.803361572265626,-0.2461786866188049,-0.6954700946807861,-0.6969972252845764
2026-01-05 14:57:09.270,1.7676250292914304e+18,24.84343041992188,-0.3759875446557998,-0.6954700946807861,-0.6969972252845764
2026-01-05 14:57:09.303,1.7676250293315128e+18,24.883512939453126,-0.3759875446557998,-1.6059647798538208,-0.6997461318969727
2026-01-05 14:57:09.336,1.7676250293515525e+18,24.903552490234375,-0.3759875446557998,-1.6059647798538208,-0.7024950385093689
2026-01-05 14:57:09.369,1.767625029371592e+18,24.923592041015624,-0.27214047312736506,-1.6059647798538208,-0.7024950385093689
2026-01-05 14:57:09.402,1.7676250294217277e+18,24.973727783203124,-0.2596177160739898,-1.3200798034667969,-0.7024950385093689
2026-01-05 14:57:09.435,1.7676250294517862e+18,25.0037861328125,-0.1264491081237793,-1.3200798034667969,-0.7024950385093689
2026-01-05 14:57:09.468,1.7676250294918618e+18,25.04386181640625,-0.1069014146924018,-1.3200798034667969,-0.7012733221054077
2026-01-05 14:57:09.501,1.7676250295319777e+18,25.083977783203125,-0.1069014146924018,-1.3726142644882202,-0.6774495840072632
2026-01-05 14:57:09.534,1.7676250295520753e+18,25.1040751953125,-0.1264491081237793,-1.3726142644882202,-0.6676757335662842
2026-01-05 14:57:09.567,1.7676250295721633e+18,25.12416333007813,-0.1331686228513717,-1.3726142644882202,-0.6774495840072632
2026-01-05 14:57:09.600,1.767625029612268e+18,25.16426806640625,-0.2034181207418441,-1.1924089193344116,-0.6835582256317139
2026-01-05 14:57:09.633,1.7676250296523766e+18,25.20437646484375,-0.2449569702148437,-0.9627236127853394,-0.6835582256317139
2026-01-05 14:57:09.666,1.7676250296924833e+18,25.2444833984375,-0.2590068578720093,-0.8491026759147644,-0.6835582256317139
2026-01-05 14:57:09.699,1.7676250297125793e+18,25.26457934570313,-0.2590068578720093,-0.8362745046615601,-0.6835582256317139
2026-01-05 14:57:09.732,1.7676250297325734e+18,25.284573486328124,-0.2449569702148437,-0.7733554244041443,-0.6420193910598755
2026-01-05 14:57:09.765,1.7676250297827261e+18,25.33472607421875,-0.2437352389097213,-0.49388454854488373,-0.3885103017091751
2026-01-05 14:57:09.798,1.7676250298127946e+18,25.364794677734373,-0.2272418737411499,-0.375071257352829,-0.3371976017951965
2026-01-05 14:57:09.831,1.767625029852909e+18,25.404908935546874,-0.2009746730327606,-0.375071257352829,-0.0934623852372169
2026-01-05 14:57:09.864,1.7676250298930122e+18,25.44501220703125,-0.2009746730327606,-0.375071257352829,0.2620611786842346
2026-01-05 14:57:09.897,1.7676250299130555e+18,25.465055419921875,-0.0656680166721344,-0.4951062649488449,0.3384193331003189
2026-01-05 14:57:09.930,1.7676250299330988e+18,25.4850986328125,-0.0604756586253643,-0.6151412725448608,0.4147774875164032
2026-01-05 14:57:09.963,1.7676250299731768e+18,25.5251767578125,-0.031154128257185148,-0.8222246170043945,0.998153805732727
2026-01-05 14:57:09.996,1.7676250300132797e+18,25.56527978515625,0.0494800843298435,-0.8484918475151062,1.6206254959106443
2026-01-05 14:57:10.029,1.7676250300433792e+18,25.595379150390624,0.0494800843298435,-1.0454958975315094,2.0607539415359497
2026-01-05 14:57:10.062,1.7676250300934979e+18,25.645497802734376,0.2266310006380081,-1.2192870378494265,2.0607539415359497
2026-01-05 14:57:10.095,1.767625030118567e+18,25.670566955566407,0.4694499298930168,-1.2518155872821808,2.0607539415359497
2026-01-05 14:57:10.128,1.767625030143636e+18,25.69563610839844,0.7122688591480255,-1.2843441367149353,1.8939876556396484
2026-01-05 14:57:10.161,1.7676250301736955e+18,25.725695556640623,0.7399613488873036,-1.4330898523330688,1.5693128108978271
2026-01-05 14:57:10.194,1.7676250302137797e+18,25.76577978515625,0.7538075937569426,-2.140471935272217,1.2901474237442017
2026-01-05 14:57:10.227,1.7676250302538913e+18,25.805891357421874,0.7676538386265817,-2.4489600106969807,1.1985175609588623
2026-01-05 14:57:10.260,1.7676250302739517e+18,25.82595178222656,0.7953465431928635,-2.4489600106969807,1.0842857956886292
2026-01-05 14:57:10.293,1.7676250302940122e+18,25.84601220703125,0.7953465431928635,-2.4489600106969807,0.970054030418396
2026-01-05 14:57:10.326,1.7676250303341279e+18,25.8861279296875,0.5778785347938538,-1.968207836151123,0.6664539575576782
2026-01-05 14:57:10.359,1.7676250303742464e+18,25.926246337890625,0.45723263919353485,-1.7079792022705078,0.4031710624694824
2026-01-05 14:57:10.392,1.7676250304143652e+18,25.966365234375,0.3365867435932159,-1.0739010572433472,0.1606575548648834
2026-01-05 14:57:10.425,1.7676250304544463e+18,26.0064462890625,0.1197295859456062,-0.6475171446800232,-0.1466076523065567
2026-01-05 14:57:10.458,1.7676250304744904e+18,26.026490278698777,0.07055512517971553,-0.5335912206038084,-0.3564390522325146
2026-01-05 14:57:10.491,1.7676250304945344e+18,26.046534423828124,0.0213802829384803,-0.5021312236785889,-0.4404338300228119
2026-01-05 14:57:10.524,1.7676250305346304e+18,26.08663037109375,0.0213802829384803,-0.4196644127368927,-0.4404338300228119
2026-01-05 14:57:10.557,1.7676250305747249e+18,26.126724853515626,0.0213802829384803,-0.4196644127368927,-0.4404338300228119
2026-01-05 14:57:10.590,1.7676250306148055e+18,26.166805419921875,0.4599815309047699,-0.5021312236785889,-0.1056796908378601
2026-01-05 14:57:10.623,1.7676250306548887e+18,26.206888671875,0.4599815309047699,-0.6148358881473541,-0.1056796908378601
2026-01-05 14:57:10.656,1.767625030674969e+18,26.226968994140623,0.4599815309047699,-0.6148358881473541,-0.1056796908378601
2026-01-05 14:57:10.689,1.7676250307050004e+18,26.25700048828125,-0.0409279726445674,-0.6148358881473541,-0.5552765130996704
2026-01-05 14:57:10.722,1.7676250307350449e+18,26.287044921875,-0.06994406133890155,-0.2700024247169494,-0.6719517707824707
2026-01-05 14:57:10.755,1.7676250307751409e+18,26.327140869140624,-0.1282816976308822,0.3536909818649292,-0.740368664264679
2026-01-05 14:57:10.788,1.7676250308152228e+18,26.367222900390622,-0.1359175145626068,0.428216528147459,-1.3335188627243042
2026-01-05 14:57:10.821,1.7676250308353075e+18,26.3873076171875,-0.1359175145626068,0.428216528147459,-1.3335188627243042
2026-01-05 14:57:10.854,1.7676250308653558e+18,26.417355712890625,-0.1368338167667389,0.6786713004112244,-1.3335188627243042
2026-01-05 14:57:10.887,1.7676250308953974e+18,26.4473974609375,-0.1359175145626068,0.6786713004112244,-1.2467759847640991
2026-01-05 14:57:10.920,1.7676250309354747e+18,26.487474609375,-0.0103847095742821,0.6786713004112244,-1.0500773191452026
2026-01-05 14:57:10.953,1.7676250309755558e+18,26.527555908203126,0.0317649915814399,0.9718861487278974,-0.9767735004425048
2026-01-05 14:57:10.986,1.767625031015647e+18,26.56764697265625,0.1453859210014343,0.9718861487278974,-0.7024950385093689
2026-01-05 14:57:11.019,1.7676250310357023e+18,26.587702348297906,0.1453859210014343,0.9718861487278974,-0.7024950385093689
2026-01-05 14:57:11.052,1.7676250310557576e+18,26.60775756835937,0.1453859210014343,0.8619308471679688,-0.7024950385093689
2026-01-05 14:57:11.085,1.7676250310958543e+18,26.64785424804688,0.0849102661013603,0.6490443348884583,-0.8136725127696991
2026-01-05 14:57:11.118,1.7676250311359473e+18,26.687947265625,0.06627887766808264,0.6490443348884583,-0.8136725127696991
2026-01-05 14:57:11.151,1.767625031166027e+18,26.71802697753906,0.0317649915814399,0.6490443348884583,-0.8136725127696991
2026-01-05 14:57:11.184,1.7676250312161224e+18,26.768122314453127,-0.1258382350206375,0.6921103000640869,-0.6004805564880371
2026-01-05 14:57:11.217,1.7676250312362138e+18,26.7882138671875,-0.1258382350206375,0.7000515460968018,-0.5992587804794312
2026-01-05 14:57:11.250,1.7676250312562312e+18,26.808231201171875,-0.1258382350206375,0.7110471725463867,-0.5778785347938538
2026-01-05 14:57:11.283,1.7676250312963415e+18,26.84834155273437,-0.0415388382971286,0.7250970602035522,-0.5100724697113037
2026-01-05 14:57:11.316,1.767625031326439e+18,26.878438964843753,-0.0415388382971286,0.7422012686729431,-0.33047810196876526
2026-01-05 14:57:11.349,1.7676250313765517e+18,26.9285517578125,-0.0415388382971286,0.8356636762619019,-0.1490511149168014
2026-01-05 14:57:11.382,1.7676250313966492e+18,26.948649169921875,-0.0226020142436027,0.8356636762619019,-0.0879645943641662
2026-01-05 14:57:11.415,1.7676250314166387e+18,26.968638671875,-0.0226020142436027,0.8356636762619019,-0.0464257597923278
2026-01-05 14:57:11.448,1.7676250314567432e+18,27.0087431640625,0.2040289938449859,0.7605272531509399,0.2932153046131134
2026-01-05 14:57:11.481,1.7676250314968346e+18,27.04883447265625,0.2339613884687423,0.4477642178535461,0.7513642311096191
2026-01-05 14:57:11.514,1.7676250315269284e+18,27.078928466796874,0.2339613884687423,0.4477642178535461,1.4511104226112366
2026-01-05 14:57:11.547,1.7676250315770227e+18,27.129022705078125,0.2339613884687423,0.4477642178535461,2.2249755067379624
2026-01-05 14:57:11.580,1.767625031597068e+18,27.14906799316406,0.17256943136453623,0.6499606370925903,2.2249755067379624
2026-01-05 14:57:11.613,1.7676250316171133e+18,27.16911328125,0.17256943136453623,0.6499606370925903,2.2249755067379624
2026-01-05 14:57:11.646,1.7676250316571968e+18,27.20919677734375,0.17256943136453623,0.6499606370925903,2.101987361907959
2026-01-05 14:57:11.679,1.7676250316972782e+18,27.2492783203125,0.2596177160739898,-0.2913827300071716,1.6420058012008667
2026-01-05 14:57:11.712,1.7676250317273723e+18,27.279372192382812,0.2596177160739898,-0.5488633473049589,1.527468502521515
2026-01-05 14:57:11.745,1.7676250317774687e+18,27.32946875,0.2596177160739898,-0.5488633473049589,1.36955988407135
2026-01-05 14:57:11.778,1.7676250317975142e+18,27.34951420447435,0.1762349412540463,-0.5488633473049589,1.1368211296537405
2026-01-05 14:57:11.811,1.7676250318175598e+18,27.36955981445313,0.0928515195846557,-0.3078760802745819,0.90408056974411
2026-01-05 14:57:11.844,1.767625031857648e+18,27.409648193359374,-0.2785545587539673,-0.0629191175103187,0.5094616413116455
2026-01-05 14:57:11.877,1.7676250318977147e+18,27.449714599609376,-0.3543018400669098,0.3103195428848266,-0.1270599663257599
2026-01-05 14:57:11.910,1.7676250319377864e+18,27.489786376953123,-0.3543018400669098,0.6731734871864319,-0.6829473376274109
2026-01-05 14:57:11.943,1.7676250319578708e+18,27.50987084960937,-0.3543018400669098,0.6731734871864319,-0.8313875794410706
2026-01-05 14:57:11.976,1.7676250319778852e+18,27.52988525390625,-0.1912008225917816,0.6731734871864319,-0.8313875794410706
2026-01-05 14:57:12.009,1.767625032017976e+18,27.56997607421875,0.1148426681756973,0.513737678527832,-0.8313875794410706
2026-01-05 14:57:12.042,1.7676250320580977e+18,27.61009765625,0.1148426681756973,-0.0128281703218817,-0.4764748811721802
2026-01-05 14:57:12.075,1.767625032098172e+18,27.650171875,0.1148426681756973,-0.0739146918058395,-0.37629130874476974
2026-01-05 14:57:12.108,1.7676250321382413e+18,27.6902412109375,-0.0360410511493682,-0.1734857261180877,-0.37629130874476974
2026-01-05 14:57:12.141,1.7676250321582838e+18,27.71028361366587,-0.1685988008975982,-0.1734857261180877,-0.37629130874476974
2026-01-05 14:57:12.174,1.7676250321783263e+18,27.730326171875,-0.1685988008975982,-0.0311541277915239,-0.6524040699005127
2026-01-05 14:57:12.207,1.767625032218416e+18,27.770416015625,-0.1685988008975982,-0.0311541277915239,-0.8093964457511902
2026-01-05 14:57:12.240,1.7676250322585057e+18,27.810505615234376,-0.1685988008975982,0.8851437568664551,-0.8411614298820496
2026-01-05 14:57:12.273,1.7676250322986004e+18,27.850600341796877,-0.1551597714424133,1.0702339556359672,-0.9993755221366882
2026-01-05 14:57:12.306,1.767625032338691e+18,27.890691162109373,-0.07391388146693437,1.0702339556359672,-0.846659243106842
2026-01-05 14:57:12.339,1.7676250323587267e+18,27.910726640212918,-0.07391388146693437,1.310916781425476,-0.846659243106842
2026-01-05 14:57:12.372,1.767625032378762e+18,27.930761962890625,0.1350012123584747,1.310916781425476,-1.0403034687042236
2026-01-05 14:57:12.405,1.7676250324188393e+18,27.97083935546875,0.2003637999296188,1.310916781425476,-0.846659243106842
2026-01-05 14:57:12.438,1.7676250324589376e+18,28.0109375,0.2003637999296188,1.9584339261054993,-0.79840087890625
2026-01-05 14:57:12.471,1.7676250324990223e+18,28.051022216796877,0.2003637999296188,1.9584339261054993,-0.7293730974197388
2026-01-05 14:57:12.504,1.7676250325190692e+18,28.071068969726564,0.1881465017795562,1.9584339261054993,-0.6511823534965515
2026-01-05 14:57:12.537,1.7676250325391158e+18,28.09111572265625,0.1881465017795562,1.955379605293274,-0.5803219676017761
2026-01-05 14:57:12.570,1.7676250325792146e+18,28.131214599609372,0.1881465017795562,1.6633861064910889,-0.5729916095733643
2026-01-05 14:57:12.603,1.7676250326192998e+18,28.1712998046875,0.1881465017795562,1.5900822281837463,-0.5152648240327835
2026-01-05 14:57:12.636,1.7676250326493975e+18,28.20139758300781,0.1881465017795562,1.5268576741218567,-0.5082398653030396
2026-01-05 14:57:12.669,1.7676250326895017e+18,28.241501708984373,0.0412334059365093,1.4721852540969849,-0.40133845806121826
2026-01-05 14:57:12.702,1.767625032719603e+18,28.27160302734375,-0.0653625801205635,1.4703526496887207,-0.3958406746387481
2026-01-05 14:57:12.735,1.7676250327396163e+18,28.2916162109375,-0.0653625801205635,1.3640620708465576,-0.3726277947425842
2026-01-05 14:57:12.768,1.7676250327797184e+18,28.33171850585937,-0.0653625801205635,1.2299771904945374,-0.371406078338623
2026-01-05 14:57:12.801,1.7676250328198134e+18,28.3718134765625,-0.017562515325945015,1.2299771904945374,-0.242513507604599
2026-01-05 14:57:12.834,1.7676250328499028e+18,28.401902832031247,-0.017562515325945015,1.2299771904945374,-0.1624901592731475
2026-01-05 14:57:12.867,1.7676250328749578e+18,28.42695786085445,-0.017562515325945015,1.2484559239447965,-0.16081028338185402
2026-01-05 14:57:12.900,1.7676250329000128e+18,28.4520126953125,-0.017562515325945015,1.2484559239447965,-0.15913039445877075
2026-01-05 14:57:12.933,1.767625032940131e+18,28.492131103515625,-0.017562515325945015,1.2484559239447965,0.0653625801205635
2026-01-05 14:57:12.966,1.7676250329802068e+18,28.532206787109374,0.1802052408456802,1.06657075881958,0.4092797040939331
2026-01-05 14:57:12.999,1.7676250330202867e+18,28.57228662109375,0.1802052408456802,1.06657075881958,1.2779301404953003
2026-01-05 14:57:13.032,1.7676250330603653e+18,28.612365234375,0.1802052408456802,1.06657075881958,2.2933918904266695
2026-01-05 14:57:13.065,1.7676250330854185e+18,28.637418395996093,0.1382082588970661,1.7136297225952148,2.2933918904266695
2026-01-05 14:57:13.098,1.7676250331104717e+18,28.662471557617188,0.13072516024112701,1.7136297225952148,2.2933918904266695
2026-01-05 14:57:13.131,1.767625033150547e+18,28.702546875,0.09621127694845195,1.7136297225952148,2.2574524879455566
2026-01-05 14:57:13.164,1.7676250331805855e+18,28.73258544921875,0.0885754600167274,0.799011766910553,1.9535470008850095
2026-01-05 14:57:13.197,1.767625033220673e+18,28.772673095703126,0.0885754600167274,-0.4893030524253845,1.6493362188339231
2026-01-05 14:57:13.230,1.7676250332607729e+18,28.81277294921875,0.0885754600167274,-0.4893030524253845,1.4599679708480835
2026-01-05 14:57:13.263,1.7676250332808225e+18,28.832822509765627,0.15027284435927868,-0.5729916095733643,1.137431114912033
2026-01-05 14:57:13.296,1.7676250333008722e+18,28.8528720703125,0.15027284435927868,-0.5729916095733643,0.8148942589759827
2026-01-05 14:57:13.329,1.7676250333409546e+18,28.89295458984375,0.15027284435927868,-0.1441642045974731,0.6212499737739563
2026-01-05 14:57:13.362,1.7676250333810365e+18,28.93303662109375,-0.0299323964864015,0.1887573599815368,-0.3237585723400116
2026-01-05 14:57:13.395,1.7676250334211192e+18,28.973119140625,-0.4563163518905639,0.6212499737739563,-0.8839219808578491
2026-01-05 14:57:13.428,1.7676250334411584e+18,28.99315832519531,-0.4563163518905639,0.6212499737739563,-0.9608910083770752
2026-01-05 14:57:13.461,1.7676250334611976e+18,29.013197509765625,-0.4563163518905639,0.6212499737739563,-0.9608910083770752
2026-01-05 14:57:13.494,1.7676250335012905e+18,29.05329052734375,-0.4166100919246673,0.4447098970413208,-0.9608910083770752
2026-01-05 14:57:13.527,1.767625033541373e+18,29.093373046875,-0.1459967941045761,-0.1136209368705749,-0.0794124826788902
2026-01-05 14:57:13.560,1.7676250335814408e+18,29.13344067382813,-0.12980813537302877,-0.19394940272533268,-0.0794124826788902
2026-01-05 14:57:13.593,1.7676250336215132e+18,29.17351318359375,-0.12980813537302877,-0.2742784917354584,-0.0794124826788902
2026-01-05 14:57:13.626,1.767625033641557e+18,29.19355692909035,0.0598647929728031,-0.19394940272533268,-0.30390401445740856
2026-01-05 14:57:13.659,1.7676250336616008e+18,29.213600830078125,-0.12980813537302877,-0.1136209368705749,-0.5387831330299377
2026-01-05 14:57:13.692,1.7676250337016786e+18,29.2536787109375,-0.1985312104225158,0.5876523852348328,-0.6768386960029602
2026-01-05 14:57:13.725,1.7676250337417492e+18,29.293749267578125,-0.1985312104225158,0.5876523852348328,-1.1007791757583618
2026-01-05 14:57:13.758,1.7676250337818237e+18,29.33382373046875,-0.1533271819353103,0.6430884152650833,-1.1045970916748047
2026-01-05 14:57:13.791,1.767625033821898e+18,29.37389794921875,-0.1533271819353103,0.8738427758216858,-1.1084150075912476
2026-01-05 14:57:13.824,1.7676250338469624e+18,29.398962463378908,-0.0006108656525611877,0.8738427758216858,-1.1045970916748047
2026-01-05 14:57:13.857,1.767625033872027e+18,29.424026977539064,0.15210545063018793,0.8738427758216858,-1.1007791757583618
2026-01-05 14:57:13.890,1.767625033902076e+18,29.454075927734376,0.15210545063018793,1.2968668937683103,-1.006095051765442
2026-01-05 14:57:13.923,1.7676250339421763e+18,29.49417626953125,0.15210545063018793,1.31305479684865,-0.7354817390441895
2026-01-05 14:57:13.956,1.7676250339822858e+18,29.534285888671874,0.0476474873721599,1.3292428255081177,-0.4954117238521576
2026-01-05 14:57:13.989,1.7676250340023334e+18,29.55433341833348,0.04459315098759024,1.31305479684865,-0.4954117238521576
2026-01-05 14:57:14.022,1.767625034022381e+18,29.574381103515623,0.0415388382971286,1.2968668937683103,-0.4954117238521576
2026-01-05 14:57:14.055,1.767625034062458e+18,29.6144580078125,0.0042760567739605,0.5589416921138763,-0.7122688889503479
2026-01-05 14:57:14.088,1.7676250341025674e+18,29.6545673828125,-0.0042760567739605,0.5589416921138763,-0.7122688889503479
2026-01-05 14:57:14.121,1.7676250341326643e+18,29.68466442871094,-0.14813482388854024,0.5589416921138763,-0.7122688889503479
2026-01-05 14:57:14.154,1.767625034182776e+18,29.734776123046878,-0.2632829248905182,0.5833762884140015,-0.6939429044723511
2026-01-05 14:57:14.187,1.767625034202867e+18,29.75486694335937,-0.2632829248905182,0.608421802520752,-0.6304129362106323
2026-01-05 14:57:14.220,1.7676250342228823e+18,29.77488232421875,-0.2632829248905182,0.6212499737739563,-0.4966334402561188
2026-01-05 14:57:14.253,1.7676250342629809e+18,29.81498095703125,-0.2742784917354584,0.6389650702476501,-0.2504547536373138
2026-01-05 14:57:14.286,1.7676250343030574e+18,29.85505737304688,-0.159435823559761,0.6389650702476501,-0.0928515195846557
2026-01-05 14:57:14.319,1.7676250343431557e+18,29.89515576171875,-0.1362229492515325,0.608421802520752,0.0494800843298435
2026-01-05 14:57:14.352,1.7676250343732431e+18,29.92524304199219,-0.1362229492515325,0.4859433174133301,0.29657508432865143
2026-01-05 14:57:14.385,1.767625034398282e+18,29.95028192138672,0.049480085261166096,0.2802344374358654,0.5991060808300972
2026-01-05 14:57:14.418,1.7676250344233208e+18,29.97532080078125,0.1203404515981674,0.2669481039047241,0.901637077331543
2026-01-05 14:57:14.451,1.7676250344634132e+18,30.015413330078125,0.2351831197738647,0.2669481039047241,1.7904460430145264
2026-01-05 14:57:14.484,1.7676250345035003e+18,30.055500244140624,0.2571742534637451,0.2669481039047241,2.1813985589693465
2026-01-05 14:57:14.517,1.7676250345435638e+18,30.09556372070313,0.2852740585803985,0.2669481039047241,2.1813985589693465
2026-01-05 14:57:14.550,1.7676250345636017e+18,30.115601762293174,0.38270754629757403,0.2345722615718841,2.1813985589693465
2026-01-05 14:57:14.583,1.7676250345836396e+18,30.1356396484375,0.5082398653030396,0.1875356286764145,1.8710802793502808
2026-01-05 14:57:14.616,1.7676250346237164e+18,30.17571630859375,0.8002334833145142,-0.9077457785606384,1.6291775703430176
2026-01-05 14:57:14.649,1.767625034663795e+18,30.215794921875,0.8087092175614328,-1.7537940740585327,1.4007140398025513
2026-01-05 14:57:14.682,1.7676250347038922e+18,30.255892333984374,0.8171849518083515,-1.851532518863678,1.2376129627227783
2026-01-05 14:57:14.715,1.7676250347439913e+18,30.2959912109375,0.8171849518083515,-1.851532518863678,0.7812966704368591
2026-01-05 14:57:14.748,1.7676250347640294e+18,30.316029541015624,0.8171849518083515,-1.851532518863678,0.5482515692710876
2026-01-05 14:57:14.781,1.7676250347840678e+18,30.33606787109375,0.7104362845420837,-1.7537940740585327,0.3152064681053161
2026-01-05 14:57:14.814,1.7676250348341793e+18,30.386179321289063,0.21319196373224256,-0.816726803779602,-0.3937026411294937
2026-01-05 14:57:14.847,1.7676250348642163e+18,30.41621630859375,0.0757472887635231,-0.816726803779602,-0.6249151229858398
2026-01-05 14:57:14.880,1.767625034904286e+18,30.456285888671875,-0.140499010682106,-0.816726803779602,-0.6249151229858398
2026-01-05 14:57:14.913,1.7676250349443668e+18,30.496366943359376,-0.140499010682106,-1.0427470207214355,-0.6249151229858398
2026-01-05 14:57:14.946,1.767625034964413e+18,30.516412886113077,-0.140499010682106,-1.0427470207214355,-0.5400064190117422
2026-01-05 14:57:14.979,1.767625034984459e+18,30.536458984375,-0.1020144969224929,-1.0427470207214355,-0.1411098688840866
2026-01-05 14:57:15.012,1.7676250350245222e+18,30.576522216796874,0.0897971875965595,-0.9221010804176331,-0.1411098688840866
2026-01-05 14:57:15.045,1.767625035064604e+18,30.61660400390625,0.0897971875965595,-0.9221010804176331,-0.1411098688840866
2026-01-05 14:57:15.078,1.767625035094684e+18,30.646683837890624,0.2083050459623336,-0.9046914577484132,-0.0018325957935303
2026-01-05 14:57:15.111,1.767625035124765e+18,30.676764892578124,0.0897971875965595,-0.9046914577484132,-0.2474004179239273
2026-01-05 14:57:15.144,1.7676250351447593e+18,30.69675927734375,0.0171042270958423,-0.9046914577484132,-0.3906483128666877
2026-01-05 14:57:15.177,1.7676250351848397e+18,30.73683959960937,-0.1899790912866592,-0.9046914577484132,-0.4648684561252594
2026-01-05 14:57:15.210,1.7676250352249132e+18,30.7769130859375,-0.1899790912866592,-0.7996225953102112,-1.0897835493087769
2026-01-05 14:57:15.243,1.767625035264975e+18,30.81697509765625,-0.1899790912866592,-0.2919955497400215,-1.1545352935791016
2026-01-05 14:57:15.276,1.767625035305045e+18,30.857044921875,-0.2180788964033126,-0.2919955497400215,-1.2864817031345468
2026-01-05 14:57:15.309,1.767625035325087e+18,30.877086836324015,-0.1725690615650904,-0.2919955497400215,-1.1545352935791016
2026-01-05 14:57:15.342,1.767625035345129e+18,30.89712890625,-0.1725690615650904,-0.2864958047866821,-1.1545352935791016
2026-01-05 14:57:15.375,1.767625035385213e+18,30.937212890625,-0.1725690615650904,-0.2864958047866821,-1.0812314748764038
2026-01-05 14:57:15.408,1.7676250354253194e+18,30.9773193359375,-0.1215621829032898,-0.2864958047866821,-1.017701506614685
2026-01-05 14:57:15.441,1.7676250354654124e+18,31.017412353515624,-0.1215621829032898,-0.4593706727027893,-0.843299805086658
2026-01-05 14:57:15.474,1.7676250355054886e+18,31.057488525390625,-0.17409681957655848,-0.4593706727027893,-0.843299805086658
2026-01-05 14:57:15.507,1.7676250355255363e+18,31.07753633264355,-0.17409681957655848,-0.5134322345256805,-0.843299805086658
2026-01-05 14:57:15.540,1.7676250355455839e+18,31.097583984375,-0.2296853363513946,-0.5134322345256805,-0.8594874143600464
2026-01-05 14:57:15.573,1.7676250355957169e+18,31.147716796875002,-0.2296853363513946,-0.4495968222618103,-0.8594874143600464
2026-01-05 14:57:15.606,1.7676250356257718e+18,31.177771728515623,-0.2296853363513946,-0.3689626157283783,-0.8594874143600464
2026-01-05 14:57:15.639,1.7676250356658836e+18,31.217883544921875,-0.2028072625398636,-0.0409279726445674,-0.475253164768219
2026-01-05 14:57:15.672,1.767625035685936e+18,31.23793603515625,-0.2028072625398636,0.02382374368608,-0.39187005162239075
2026-01-05 14:57:15.705,1.7676250357059886e+18,31.257988525390623,-0.1716531366109848,0.02382374368608,-0.3084869384765625
2026-01-05 14:57:15.738,1.767625035746075e+18,31.298074951171877,-0.1716531366109848,0.02382374368608,-0.219300627708435
2026-01-05 14:57:15.771,1.7676250357861696e+18,31.33816967773437,-0.1233947798609733,-0.078801617026329,0.2260201424360275
2026-01-05 14:57:15.804,1.7676250358262628e+18,31.3782626953125,0.11881286634823432,-0.3824009005035046,0.5308418869972229
2026-01-05 14:57:15.837,1.7676250358663483e+18,31.418348388671877,0.11881286634823432,-0.3824009005035046,1.3927727937698364
2026-01-05 14:57:15.870,1.767625035886396e+18,31.43839595178323,0.11881286634823432,-0.3824009005035046,1.6939304827333395
2026-01-05 14:57:15.903,1.7676250359064433e+18,31.458443359375,0.11881286634823432,-0.3824009005035046,1.995085835456848
2026-01-05 14:57:15.936,1.767625035946544e+18,31.498544189453124,0.11881286634823432,-0.3824009005035046,1.995085835456848
2026-01-05 14:57:15.969,1.7676250359866132e+18,31.53861328125,0.3475823104381561,-0.7275404930114746,1.995085835456848
2026-01-05 14:57:16.002,1.767625036026694e+18,31.57869384765625,0.7845545970298714,-1.3640620708465576,1.6975945234298706
2026-01-05 14:57:16.035,1.7676250360668278e+18,31.61882788085937,0.7845545970298714,-2.198503971099853,1.4343116283416748
2026-01-05 14:57:16.068,1.7676250360868716e+18,31.63887170410156,0.7852672730234067,-2.297158718109131,1.3158037662506104
2026-01-05 14:57:16.101,1.7676250361069156e+18,31.65891552734375,0.7845545970298714,-2.297158718109131,1.197295904159546
2026-01-05 14:57:16.134,1.7676250361470124e+18,31.699012451171875,0.7831292450428009,-2.297158718109131,0.8790351152420044
2026-01-05 14:57:16.167,1.767625036187106e+18,31.73910595703125,0.778853178024292,-2.132530689239502,0.5265658497810364
2026-01-05 14:57:16.200,1.7676250362271772e+18,31.77917724609375,0.6340781152248383,-1.8466455936431885,0.1643227487802505
2026-01-05 14:57:16.233,1.7676250362472243e+18,31.799224487304684,0.5616905838251114,-1.673159897327423,0.0580321978777647
2026-01-05 14:57:16.266,1.7676250362672717e+18,31.819271728515623,0.4893030524253845,-1.4996742010116575,-0.0482583530247211
2026-01-05 14:57:16.299,1.7676250363073462e+18,31.85934619140625,0.0616973899304866,-1.2260065078735352,-0.1227839142084121
2026-01-05 14:57:16.332,1.7676250363474122e+18,31.899412109375,-0.1233947798609733,-0.9871582388877868,-0.1722639948129654
2026-01-05 14:57:16.365,1.7676250363874998e+18,31.939499755859377,-0.1233947798609733,-0.8662069439888,-0.1722639948129654
2026-01-05 14:57:16.398,1.7676250364275894e+18,31.97958935546875,-0.1233947798609733,-0.8155050873756409,-0.1722639948129654
2026-01-05 14:57:16.431,1.767625036447625e+18,31.999625,0.15393803268671039,-0.7067710757255554,0.0519235469400882
2026-01-05 14:57:16.464,1.7676250364676605e+18,32.01966064453125,0.15393803268671039,-0.7067710757255554,0.0519235469400882
2026-01-05 14:57:16.497,1.7676250365077414e+18,32.059741455078125,0.15393803268671039,-0.627358615398407,0.0519235469400882
2026-01-05 14:57:16.530,1.767625036547828e+18,32.09982788085937,0.1496619880199432,-0.5455026626586914,-0.3316998183727264
2026-01-05 14:57:16.563,1.7676250365879063e+18,32.13990625,-0.0891863256692886,-0.5455026626586914,-0.3915646076202392
2026-01-05 14:57:16.596,1.767625036627986e+18,32.17998583984375,-0.2974913716316223,0.660039909183979,-1.0690141916275024
2026-01-05 14:57:16.629,1.767625036653044e+18,32.20504390915253,-0.2974913716316223,0.660039909183979,-1.1423180103302002
2026-01-05 14:57:16.662,1.7676250366781023e+18,32.23010217285156,-0.2974913716316223,0.660039909183979,-1.2400557916999737
2026-01-05 14:57:16.695,1.7676250367081382e+18,32.26013818359375,-0.23273965716362,0.660039909183979,-1.3274102210998535
