datetime,time,seconds_elapsed,z,y,x
2026-01-05 14:56:44.553,1.767625004557419e+18,0.1094189453125,0.078348159790039,0.0375525206327438,0.1537019610404968
2026-01-05 14:56:44.586,1.767625004597494e+18,0.149493896484375,-0.1253929138183594,0.1523674353957176,0.08127711713314055
2026-01-05 14:56:44.619,1.767625004637579e+18,0.1895791015625,-0.3291339874267578,0.0375525206327438,0.1537019610404968
2026-01-05 14:56:44.652,1.7676250046676442e+18,0.2196441650390625,-0.6974124908447266,0.0375525206327438,0.1537019610404968
2026-01-05 14:56:44.685,1.7676250047177324e+18,0.269732421875,-0.9892718191571099,-0.0197124034166336,-0.22549399733543396
2026-01-05 14:56:44.718,1.7676250047377736e+18,0.2897736373054837,-0.9892718191571099,-0.22766730739199406,-0.22549399733543396
2026-01-05 14:56:44.751,1.7676250047578148e+18,0.309814697265625,-0.9892718191571099,-0.435623824596405,-0.6138506655503235
2026-01-05 14:56:44.784,1.767625004797902e+18,0.349902099609375,-0.9892718191571099,-0.4643761217594147,-0.6993209719657898
2026-01-05 14:56:44.817,1.7676250048379796e+18,0.389979736328125,-0.4079427719116211,-0.7188861966133118,-0.6993209719657898
2026-01-05 14:56:44.850,1.7676250048780552e+18,0.43005517578125,-0.21859000193420436,-1.374949336051941,-0.6262829749024423
2026-01-05 14:56:44.883,1.7676250048980956e+18,0.4500955367162318,-0.4079427719116211,-1.4143163822993146,-0.6993209719657898
2026-01-05 14:56:44.916,1.7676250049181358e+18,0.4701357421875,-0.3241128921508789,-1.4536837339401243,-0.6993209719657898
2026-01-05 14:56:44.949,1.767625004968223e+18,0.5202230224609374,-0.3241128921508789,-1.9338549375534058,-1.5506672263145447
2026-01-05 14:56:44.982,1.7676250049982881e+18,0.5502880859375,-0.3241128921508789,-1.9338549375534058,-1.5506672263145447
2026-01-05 14:56:45.015,1.7676250050283415e+18,0.5803414306640625,-0.35973048210144043,-1.9338549375534058,-1.5506672263145447
2026-01-05 14:56:45.048,1.7676250050784453e+18,0.6304453125,-0.35973048210144043,-1.5487885475158691,-1.4926724433898926
2026-01-05 14:56:45.081,1.7676250050984945e+18,0.650494384765625,-0.35973048210144043,-1.15254545211792,-1.3531014919281006
2026-01-05 14:56:45.114,1.7676250051185434e+18,0.67054345703125,0.7590150833129883,-0.7563023567199707,-1.2135305404663086
2026-01-05 14:56:45.147,1.7676250051686339e+18,0.7206336669921876,2.048428058624268,1.2914004325866697,-0.2954853773117065
2026-01-05 14:56:45.180,1.7676250051986765e+18,0.750676513671875,2.499842405319214,1.603759527206421,1.0708565711975098
2026-01-05 14:56:45.213,1.7676250052287322e+18,0.780732177734375,2.499842405319214,1.75859534740448,1.0708565711975098
2026-01-05 14:56:45.246,1.767625005268821e+18,0.8208209228515625,2.048428058624268,1.75859534740448,1.0708565711975098
2026-01-05 14:56:45.279,1.7676250052988923e+18,0.850892333984375,1.6039552688598633,1.8445022106170652,1.0708565711975098
2026-01-05 14:56:45.312,1.7676250053289603e+18,0.880960205078125,1.3397259712219238,1.986490488052368,1.0708565711975098
2026-01-05 14:56:45.345,1.7676250053590236e+18,0.911023681640625,1.213007926940918,1.8445022106170652,-0.2890982627868652
2026-01-05 14:56:45.378,1.7676250053990922e+18,0.95109228515625,0.9298182725906372,1.2222137451171875,-0.6073033809661865
2026-01-05 14:56:45.411,1.7676250054391455e+18,0.9911455078125,0.9298182725906372,0.1105413436889648,0.4427251815795898
2026-01-05 14:56:45.444,1.7676250054591754e+18,1.011175537109375,0.9298182725906372,-0.3640782833099365,-1.3094861507415771
2026-01-05 14:56:45.477,1.7676250054792056e+18,1.03120556640625,0.9298182725906372,-0.3640782833099365,-1.3094861507415771
2026-01-05 14:56:45.510,1.7676250055192748e+18,1.071274658203125,0.6466286182403564,-0.11584043502807617,-0.407975912094116
2026-01-05 14:56:45.543,1.7676250055593329e+18,1.111332763671875,0.2245848178863525,0.1105413436889648,-0.407975912094116
2026-01-05 14:56:45.576,1.76762500558938e+18,1.1413802490234375,0.03343101974771215,0.5778517723083496,-0.4273996353149414
2026-01-05 14:56:45.609,1.767625005639463e+18,1.191462890625,-0.0222063064575195,1.0421772003173828,-0.4273996353149414
2026-01-05 14:56:45.642,1.7676250056594867e+18,1.21148673873784,-0.1577242612838745,1.4596514701843262,-0.4273996353149414
2026-01-05 14:56:45.675,1.7676250056795108e+18,1.2315107421875,0.03343101974771215,1.4596514701843262,-0.4567885398864746
2026-01-05 14:56:45.708,1.7676250057295828e+18,1.2815828857421874,0.03343101974771215,1.4596514701843262,-0.775558551753958
2026-01-05 14:56:45.741,1.7676250057596483e+18,1.311648193359375,-0.1577242612838745,-1.830692768096924,-0.4567885398864746
2026-01-05 14:56:45.774,1.7676250057997102e+18,1.351710205078125,-0.2748909592628479,-1.830692768096924,-0.27989864349365234
2026-01-05 14:56:45.807,1.767625005829755e+18,1.3817548828125,-0.4205491244792938,-1.830692768096924,-0.27989864349365234
2026-01-05 14:56:45.840,1.7676250058598006e+18,1.4118005981445312,-0.4205491244792938,-0.8296655416488647,-0.27989864349365234
2026-01-05 14:56:45.873,1.7676250058898463e+18,1.4418463134765624,-0.4205491244792938,0.5608789920806885,-0.27989864349365234
2026-01-05 14:56:45.906,1.7676250059198812e+18,1.471881103515625,0.9036072492599488,2.415823346033402,-0.7496514320373535
2026-01-05 14:56:45.939,1.7676250059599462e+18,1.5119462890625,2.048744201660156,2.415823346033402,-0.7496514320373535
2026-01-05 14:56:45.972,1.767625006000013e+18,1.552012939453125,2.048744201660156,2.5138971917921458,-0.7496514320373535
2026-01-05 14:56:46.005,1.767625006020043e+18,1.57204296875,2.048744201660156,2.317749500274658,-0.246922492980957
2026-01-05 14:56:46.038,1.7676250060400768e+18,1.592076904296875,0.4447270035743713,2.023527202181663,-0.246922492980957
2026-01-05 14:56:46.071,1.7676250060801467e+18,1.632146728515625,-0.5381231978535652,1.4408466021219888,-0.246922492980957
2026-01-05 14:56:46.104,1.7676250061202148e+18,1.67221484375,-0.5381231978535652,0.6677823066711425,-0.4390723705291748
2026-01-05 14:56:46.137,1.7676250061502592e+18,1.7022590332031249,0.4447270035743713,0.7711944580078125,-1.950198531150818
2026-01-05 14:56:46.170,1.767625006190319e+18,1.7423192138671875,0.4447270035743713,0.7711944580078125,-2.1739320755004883
2026-01-05 14:56:46.203,1.767625006220363e+18,1.772363037109375,0.6597837805747986,0.28125015894571925,-2.1739320755004883
2026-01-05 14:56:46.236,1.7676250062404099e+18,1.792409912109375,0.6597837805747986,0.5956239700317383,-1.950198531150818
2026-01-05 14:56:46.269,1.7676250062905062e+18,1.8425062255859375,0.29974672198295593,0.7711944580078125,0.22218918800354
2026-01-05 14:56:46.302,1.7676250063205586e+18,1.87255859375,0.2304984927177429,1.0837697982788086,0.22218918800354
2026-01-05 14:56:46.335,1.7676250063506043e+18,1.9026043701171875,0.2304984927177429,2.1684498240976398,0.22218918800354
2026-01-05 14:56:46.368,1.767625006400682e+18,1.952681884765625,0.0437324047088623,2.1684498240976398,-0.6756759881973267
2026-01-05 14:56:46.401,1.7676250064207104e+18,1.97271044921875,0.0437324047088623,2.1684498240976398,-0.6756759881973267
2026-01-05 14:56:46.434,1.767625006440744e+18,1.992743896484375,-1.0468474626541138,1.51342381048776,-0.6756759881973267
2026-01-05 14:56:46.467,1.7676250064808182e+18,2.032818115234375,0.0437324047088623,1.1557836532592771,0.5715152621269226
2026-01-05 14:56:46.500,1.7676250065208924e+18,2.072892333984375,0.3779312372207641,1.1557836532592771,0.5715152621269226
2026-01-05 14:56:46.533,1.7676250065609615e+18,2.11296142578125,0.8584381341934204,1.1557836532592771,0.5715152621269226
2026-01-05 14:56:46.566,1.7676250065809969e+18,2.1329969038847927,0.3779312372207641,1.1557836532592771,-0.7527701420265804
2026-01-05 14:56:46.599,1.7676250066010322e+18,2.1530322265625,1.415324091911316,1.1557836532592771,-0.7527701420265804
2026-01-05 14:56:46.632,1.767625006641099e+18,2.19309912109375,1.415324091911316,-0.055268287658691406,-1.1420227885246277
2026-01-05 14:56:46.665,1.7676250066811768e+18,2.2331767578125,1.3481006622314453,-0.2634272575378418,-1.1420227885246277
2026-01-05 14:56:46.698,1.7676250067112384e+18,2.2632384033203126,1.0927674770355225,-1.6564807891845703,-0.1873272359371185
2026-01-05 14:56:46.731,1.7676250067613384e+18,2.31333837890625,1.0927674770355225,-1.6564807891845703,0.04371421039104459
2026-01-05 14:56:46.764,1.7676250067813742e+18,2.333374267578125,0.6264495253562927,-1.0921812057495115,-0.1873272359371185
2026-01-05 14:56:46.797,1.76762500680141e+18,2.35341015625,0.5392378568649292,-1.0921812057495115,-0.1873272359371185
2026-01-05 14:56:46.830,1.7676250068414907e+18,2.39349072265625,0.5392378568649292,-0.7585522108752754,-0.7546699643135071
2026-01-05 14:56:46.863,1.7676250068815624e+18,2.433562255859375,0.5392378568649292,-0.4249258041381836,-0.7546699643135071
2026-01-05 14:56:46.896,1.7676250069216412e+18,2.47364111328125,0.632394552230835,0.1717939376831054,-0.7546699643135071
2026-01-05 14:56:46.929,1.7676250069517174e+18,2.5037175292968747,0.632394552230835,0.4705028533935547,-0.7082786560058594
2026-01-05 14:56:46.962,1.767625006981799e+18,2.533798828125,0.632394552230835,0.4705028533935547,-0.7015195488929749
2026-01-05 14:56:46.995,1.7676250070018522e+18,2.55385205078125,0.5572648048400879,0.4705028533935547,-0.6751269400119781
2026-01-05 14:56:47.028,1.767625007041943e+18,2.593943115234375,0.5241937637329102,0.31614255905151367,-0.0962423682212829
2026-01-05 14:56:47.061,1.7676250070820357e+18,2.63403564453125,0.3455910682678222,0.2532300949096679,0.054336130619049
2026-01-05 14:56:47.094,1.7676250071120947e+18,2.6640946044921874,0.325595498085022,0.2532300949096679,0.34183362126350403
2026-01-05 14:56:47.127,1.767625007142158e+18,2.694157958984375,0.1129417419433593,0.2532300949096679,0.5109398365020752
2026-01-05 14:56:47.160,1.7676250071622152e+18,2.714215087890625,-0.2953953742980957,0.2532300949096679,0.6805764436721802
2026-01-05 14:56:47.193,1.7676250072123244e+18,2.7643242187499997,-0.647171139717102,0.2476491928100586,0.6805764436721802
2026-01-05 14:56:47.226,1.767625007242392e+18,2.79439208984375,-0.8398774862289429,-0.161900520324707,0.5109398365020752
2026-01-05 14:56:47.259,1.7676250072824922e+18,2.8344921875,-1.015782866126719,-0.161900520324707,-0.4087838530540466
2026-01-05 14:56:47.292,1.7676250073225958e+18,2.874595947265625,-0.9381168484687804,-0.12716880636289968,-0.6549654603004456
2026-01-05 14:56:47.325,1.7676250073426327e+18,2.8946328568512394,-0.9381168484687804,0.157623291015625,-0.6549654603004456
2026-01-05 14:56:47.358,1.7676250073626698e+18,2.914669921875,-0.9381168484687804,0.157623291015625,-0.6549654603004456
2026-01-05 14:56:47.391,1.7676250074127887e+18,2.964788818359375,-0.1058591902256012,0.157623291015625,-0.4529136121273041
2026-01-05 14:56:47.424,1.7676250074428756e+18,2.994875732421875,-0.1058591902256012,0.157623291015625,-0.4529136121273041
2026-01-05 14:56:47.457,1.7676250074829724e+18,3.034972412109375,-0.1058591902256012,-0.5023984909057617,-0.4529136121273041
2026-01-05 14:56:47.490,1.7676250075030154e+18,3.0550153031171017,-0.1991422672608309,-0.5023984909057617,-0.4529136121273041
2026-01-05 14:56:47.523,1.7676250075230584e+18,3.075058349609375,-0.1991422672608309,-0.5023984909057617,-0.4529136121273041
2026-01-05 14:56:47.556,1.767625007563152e+18,3.11515185546875,-0.1991422672608309,0.0156631469726562,-0.256406158208847
2026-01-05 14:56:47.589,1.767625007603222e+18,3.155221923828125,-0.0862241685390472,0.0156631469726562,-0.256406158208847
2026-01-05 14:56:47.622,1.7676250076433185e+18,3.195318603515625,0.3675103187561035,0.0156631469726562,-0.256406158208847
2026-01-05 14:56:47.655,1.7676250076834232e+18,3.23542333984375,0.4520085155963897,0.0156631469726562,-0.6731236577033997
2026-01-05 14:56:47.688,1.76762500770347e+18,3.2554700927734377,0.4520085155963897,0.0904560089111328,-0.9441374838352203
2026-01-05 14:56:47.721,1.767625007723517e+18,3.275516845703125,0.6640399098396301,0.009547233581542997,-0.9441374838352203
2026-01-05 14:56:47.754,1.7676250077736453e+18,3.3256453857421873,0.4520085155963897,0.009547233581542997,-1.0945377349853516
2026-01-05 14:56:47.787,1.767625007803828e+18,3.355827880859375,0.3326526880264282,0.12611913681030273,-0.9441374838352203
2026-01-05 14:56:47.820,1.7676250078439014e+18,3.3959013671875,0.3326526880264282,-0.0996360778808593,-0.6840927600860596
2026-01-05 14:56:47.853,1.7676250078839974e+18,3.43599755859375,0.3917783498764038,-0.3178634643554687,-0.3012593388557434
2026-01-05 14:56:47.886,1.7676250079040435e+18,3.45604345703125,0.3917783498764038,-0.5722732543945312,-0.3012593388557434
2026-01-05 14:56:47.919,1.7676250079240722e+18,3.476072265625,0.7565689086914062,-0.8423776626586914,-0.3012593388557434
2026-01-05 14:56:47.952,1.767625007964165e+18,3.5161650390625,0.7708739042282104,-1.1548852920532229,-0.5543228983879089
2026-01-05 14:56:47.985,1.7676250080042616e+18,3.55626171875,1.2069506645202637,-1.4406376461661405,-0.5543228983879089
2026-01-05 14:56:48.018,1.7676250080443418e+18,3.596341796875,1.3566120862960815,-1.4406376461661405,-0.5543228983879089
2026-01-05 14:56:48.051,1.7676250080643704e+18,3.6163704390145273,1.3566120862960815,-1.4406376461661405,-0.46360048718660396
2026-01-05 14:56:48.084,1.7676250080843988e+18,3.63639892578125,1.3566120862960815,-0.7178983688354492,0.5273849964141846
2026-01-05 14:56:48.117,1.7676250081244818e+18,3.676481689453125,1.2042914628982544,-0.7178983688354492,0.5273849964141846
2026-01-05 14:56:48.150,1.767625008164582e+18,3.716581787109375,-1.0179656744003296,-0.7178983688354492,0.5273849964141846
2026-01-05 14:56:48.183,1.7676250082046597e+18,3.75665966796875,-1.5575726330280304,-1.6661043167114258,0.497317835688591
2026-01-05 14:56:48.216,1.7676250082347118e+18,3.7867117919921878,-1.5575726330280304,-1.6661043167114258,0.497317835688591
2026-01-05 14:56:48.249,1.7676250082597632e+18,3.8117633666992186,-1.5575726330280304,-1.6661043167114258,-0.21098721027374265
2026-01-05 14:56:48.282,1.7676250082848148e+18,3.83681494140625,-1.541680097579956,-0.4651441574096679,0.497317835688591
2026-01-05 14:56:48.315,1.7676250083348956e+18,3.8868955078125,-1.541680097579956,0.0194449424743652,0.9092261791229248
2026-01-05 14:56:48.348,1.7676250083650222e+18,3.917022216796875,-1.541680097579956,0.1666994094848632,1.3516837358474731
2026-01-05 14:56:48.381,1.7676250084051302e+18,3.957130126953125,-1.9713380336761475,0.9518365859985352,1.9669229984283447
2026-01-05 14:56:48.414,1.7676250084452124e+18,3.99721240234375,-1.9713380336761475,1.7371225357055664,1.9669229984283447
2026-01-05 14:56:48.447,1.7676250084652462e+18,4.017246215820313,-1.9713380336761475,1.7945609092712402,1.9669229984283447
2026-01-05 14:56:48.480,1.76762500848528e+18,4.037280029296875,-1.8920544385910036,1.816084384918213,1.8172450065612795
2026-01-05 14:56:48.513,1.7676250085353713e+18,4.087371459960938,-1.7876837253570557,1.816084384918213,0.5241399705410004
2026-01-05 14:56:48.546,1.7676250085654239e+18,4.117423828125,-1.379939079284668,1.7945609092712402,0.3428919911384582
2026-01-05 14:56:48.579,1.7676250086055004e+18,4.15750048828125,-0.6298995018005371,0.8243408203125,0.12016361951828
2026-01-05 14:56:48.612,1.7676250086255488e+18,4.1775488281249995,0.5099226236343384,0.007779598236083984,0.03810685873031611
2026-01-05 14:56:48.645,1.7676250086455972e+18,4.19759716796875,1.649744749069214,-0.808781623840332,0.03810685873031611
2026-01-05 14:56:48.678,1.767625008685673e+18,4.2376728515625,1.649744749069214,-0.8734560012817383,0.03810685873031611
2026-01-05 14:56:48.711,1.7676250087257439e+18,4.277743896484375,1.649744749069214,-1.1304340362548828,0.0667780637741088
2026-01-05 14:56:48.744,1.767625008765824e+18,4.317823974609375,1.0567905902862549,-2.027820587158203,0.9768460988998412
2026-01-05 14:56:48.777,1.767625008805886e+18,4.357885986328125,-0.5984253883361816,-1.1304340362548828,1.8290047645568848
2026-01-05 14:56:48.810,1.767625008825917e+18,4.3779169921875,-1.466543197631836,-0.8734560012817383,2.637993574142456
2026-01-05 14:56:48.843,1.7676250088559667e+18,4.407966796875,-1.8982596397399905,1.0361709594726562,2.637993574142456
2026-01-05 14:56:48.876,1.767625008886031e+18,4.438031005859375,-1.5357260704040527,1.0361709594726562,0.9768460988998412
2026-01-05 14:56:48.909,1.7676250089260954e+18,4.478095458984375,-1.466543197631836,1.0361709594726562,1.4866244792938232
2026-01-05 14:56:48.942,1.7676250089662323e+18,4.518232421875,-1.466543197631836,0.4176521301269531,1.4866244792938232
2026-01-05 14:56:48.975,1.767625009006323e+18,4.558322998046875,-1.5357260704040527,0.1667647361755371,1.4866244792938232
2026-01-05 14:56:49.008,1.7676250090313677e+18,4.583367858886719,-1.4038448631763456,-0.08412265777587889,1.4866244792938232
2026-01-05 14:56:49.041,1.7676250090564127e+18,4.608412719726562,-1.252132534980774,0.1667647361755371,1.4866244792938232
2026-01-05 14:56:49.074,1.7676250090864765e+18,4.6384765625,-1.252132534980774,0.1667647361755371,0.7080063819885254
2026-01-05 14:56:49.107,1.7676250091265848e+18,4.678584716796875,-1.206961989402771,0.1719989776611328,0.4842347502708435
2026-01-05 14:56:49.140,1.7676250091666834e+18,4.718683349609375,-1.061673879623413,0.17549370363827646,-0.3632453680038452
2026-01-05 14:56:49.173,1.7676250091867374e+18,4.738737348972451,-0.6417770877448775,0.17549370363827646,-0.3632453680038452
2026-01-05 14:56:49.206,1.7676250092067914e+18,4.75879150390625,-0.2218770384788513,0.1719989776611328,-0.3632453680038452
2026-01-05 14:56:49.239,1.7676250092468918e+18,4.798891845703125,-0.2156236171722412,0.1013126373291015,0.1409851908683776
2026-01-05 14:56:49.272,1.767625009286969e+18,4.838968994140625,0.4071818590164184,0.0704622268676757,0.1409851908683776
2026-01-05 14:56:49.305,1.7676250093270733e+18,4.8790732421875,0.7207925319671631,-0.1530981063842773,0.1409851908683776
2026-01-05 14:56:49.338,1.7676250093671826e+18,4.9191826171875,0.7207925319671631,-0.1530981063842773,-1.1201605796813965
2026-01-05 14:56:49.371,1.767625009387226e+18,4.93922607421875,0.7207925319671631,-0.2844967842102051,-1.1419333815574646
2026-01-05 14:56:49.404,1.7676250094172997e+18,4.969299682617187,0.5913660526275635,-0.4403791427612304,-1.1419333815574646
2026-01-05 14:56:49.437,1.767625009457397e+18,5.0093969726562495,0.5913660526275635,-0.4403791427612304,-1.1419333815574646
2026-01-05 14:56:49.470,1.7676250094874767e+18,5.039476806640625,0.5913660526275635,-0.4432563781738281,-1.1419333815574646
2026-01-05 14:56:49.503,1.767625009527553e+18,5.079552978515625,0.6751385927200317,-0.7622957229614258,-1.1087205410003662
2026-01-05 14:56:49.536,1.7676250095676554e+18,5.119655517578125,0.9226654171943665,-2.193550109863281,0.0316807627677917
2026-01-05 14:56:49.569,1.7676250095876897e+18,5.139689697265625,1.4823232889175415,-2.193550109863281,0.0316807627677917
2026-01-05 14:56:49.602,1.7676250096077435e+18,5.159743408203125,0.9226654171943665,-2.193550109863281,0.0316807627677917
2026-01-05 14:56:49.635,1.7676250096578493e+18,5.209849365234375,0.9226654171943665,-0.8429641723632812,1.0327301025390625
2026-01-05 14:56:49.668,1.7676250096879286e+18,5.239928466796875,0.6450439095497131,-0.8429641723632812,2.566777103341318
2026-01-05 14:56:49.701,1.76762500972801e+18,5.280010009765625,-0.4161120653152466,-0.8429641723632812,2.566777103341318
2026-01-05 14:56:49.734,1.7676250097480507e+18,5.300050614842179,-1.1019627828392686,-0.8429641723632812,2.566777103341318
2026-01-05 14:56:49.767,1.7676250097680911e+18,5.320091064453125,-1.7859416007995603,-0.676541805267334,0.9438380599021912
2026-01-05 14:56:49.800,1.767625009818198e+18,5.370197998046875,-1.7859416007995603,-0.676541805267334,0.45982420444488525
2026-01-05 14:56:49.833,1.7676250098482844e+18,5.400284423828125,-1.7859416007995603,0.2204542160034179,0.45982420444488525
2026-01-05 14:56:49.866,1.7676250098783521e+18,5.43035205078125,-1.7859416007995603,0.32431888580322266,0.45982420444488525
2026-01-05 14:56:49.899,1.7676250099284756e+18,5.4804755859375,-1.7859416007995603,0.3666009902954101,2.170305728912353
2026-01-05 14:56:49.932,1.7676250099485297e+18,5.5005296630859375,-1.9895145893096924,0.9441447257995605,2.5225625038146973
2026-01-05 14:56:49.965,1.7676250099685837e+18,5.520583740234375,-2.209312438964844,1.6678352355957031,2.5225625038146973
2026-01-05 14:56:49.998,1.7676250100086561e+18,5.56065625,-2.209312438964844,1.6678352355957031,2.5225625038146973
2026-01-05 14:56:50.031,1.7676250100487386e+18,5.600738525390625,-2.209312438964844,1.6678352355957031,0.4954512119293213
2026-01-05 14:56:50.064,1.7676250100888402e+18,5.640840087890625,-0.7128221988677979,1.2059168815612793,-0.0822364091873169
2026-01-05 14:56:50.097,1.7676250101289272e+18,5.68092724609375,0.9348549842834472,0.7707805633544922,-0.2808758958255221
2026-01-05 14:56:50.130,1.7676250101489764e+18,5.700976362663266,1.639483460547228,-0.102025461304728,-0.3292620182037353
2026-01-05 14:56:50.163,1.7676250101690255e+18,5.721025634765625,2.3441174030303955,-0.1902503967285156,-0.2808758958255221
2026-01-05 14:56:50.196,1.7676250102091205e+18,5.76112060546875,2.3441174030303955,-0.1902503967285156,-0.2808758958255221
2026-01-05 14:56:50.229,1.7676250102491896e+18,5.801189697265625,2.3441174030303955,-0.9748382568359376,0.3027431964874267
2026-01-05 14:56:50.262,1.7676250102892605e+18,5.841260498046875,-0.3753578662872314,-1.078676462173462,2.1183932514915287
2026-01-05 14:56:50.295,1.7676250103093023e+18,5.861302368164063,-1.0578935146331787,-0.1902503967285156,2.1183932514915287
2026-01-05 14:56:50.328,1.7676250103293443e+18,5.88134423828125,-1.4956880807876587,0.1899986267089843,2.1183932514915287
2026-01-05 14:56:50.361,1.7676250103694185e+18,5.92141845703125,-2.616018295288086,0.1083889007568359,1.4969912767410278
2026-01-05 14:56:50.394,1.7676250104094956e+18,5.96149560546875,-2.616018295288086,0.1083889007568359,0.27830542960492854
2026-01-05 14:56:50.427,1.7676250104495716e+18,6.001571533203125,-1.5635899305343628,0.1083889007568359,0.27830542960492854
2026-01-05 14:56:50.460,1.767625010489635e+18,6.041635009765625,-1.5635899305343628,0.1083889007568359,0.27830542960492854
2026-01-05 14:56:50.493,1.7676250105146844e+18,6.066684412115837,-1.3984998311580608,-0.09802355320574152,0.34058541812282606
2026-01-05 14:56:50.526,1.767625010539734e+18,6.091734008789063,-1.2334084510803223,-0.09802355320574152,1.5261881351470947
2026-01-05 14:56:50.559,1.7676250105698084e+18,6.121808349609375,-1.171849250793457,0.1284990310668945,1.5261881351470947
2026-01-05 14:56:50.592,1.7676250106099013e+18,6.1619013671875,-0.5546072125434875,0.1932010650634765,1.5261881351470947
2026-01-05 14:56:50.625,1.7676250106499963e+18,6.201996337890625,-0.3585244858228811,0.1932010650634765,-0.0503212652628654
2026-01-05 14:56:50.658,1.7676250106900803e+18,6.242080322265625,-0.3421948850154876,0.4650516510009765,-0.0503212652628654
2026-01-05 14:56:50.691,1.767625010710113e+18,6.262113114811876,-0.3421948850154876,0.4650516510009765,-0.0503212652628654
2026-01-05 14:56:50.724,1.7676250107301458e+18,6.282145751953125,-0.1624432802200317,0.4650516510009765,0.18933719396591178
2026-01-05 14:56:50.757,1.7676250107702464e+18,6.322246337890625,0.5917284488677979,0.0997209548950195,0.18933719396591178
2026-01-05 14:56:50.790,1.7676250108003064e+18,6.352306518554688,0.8099156022071838,0.023283481597900405,0.18933719396591178
2026-01-05 14:56:50.823,1.767625010850429e+18,6.402428955078125,0.8099156022071838,-0.0531539916992187,-0.2957672476768493
2026-01-05 14:56:50.856,1.7676250108704794e+18,6.422479248046875,0.8099156022071838,-0.0531539916992187,-0.2957672476768493
2026-01-05 14:56:50.889,1.7676250108905295e+18,6.442529541015625,0.8099156022071838,-0.0531539916992187,-0.2957672476768493
2026-01-05 14:56:50.922,1.7676250109406405e+18,6.492640502929687,0.8099156022071838,-1.0269651412963867,-1.0953674018383026
2026-01-05 14:56:50.955,1.7676250109706918e+18,6.52269189453125,1.4231600165367129,-1.4036188125610352,-1.04925537109375
2026-01-05 14:56:50.988,1.7676250110007519e+18,6.552751953125,1.7312592267990112,-2.236302759241459,-0.2914401590824127
2026-01-05 14:56:51.021,1.7676250110508605e+18,6.602860595703125,1.7851245403289795,-2.236302759241459,-0.14802636817858694
2026-01-05 14:56:51.054,1.7676250110708984e+18,6.622898515222387,1.7312592267990112,-2.236302759241459,-0.14802636817858694
2026-01-05 14:56:51.087,1.7676250110909363e+18,6.642936279296875,1.7312592267990112,-1.9663572311401367,0.7531956434249878
2026-01-05 14:56:51.120,1.7676250111310354e+18,6.683035400390625,1.1202467679977417,-1.9663572311401367,0.7531956434249878
2026-01-05 14:56:51.153,1.7676250111711322e+18,6.723132080078125,-0.988090455532074,-0.876042366027832,0.7531956434249878
2026-01-05 14:56:51.186,1.7676250112112038e+18,6.763203857421875,-1.564160704612732,-0.4626235961914062,0.225071907043457
2026-01-05 14:56:51.219,1.7676250112512986e+18,6.803298583984375,-1.586148023605347,-0.4626235961914062,0.1097834706306457
2026-01-05 14:56:51.252,1.76762501127134e+18,6.823339965820313,-1.8430755734443665,-0.4626235961914062,0.1097834706306457
2026-01-05 14:56:51.285,1.7676250112913812e+18,6.84338134765625,-1.8430755734443665,-0.0492048263549804,0.1097834706306457
2026-01-05 14:56:51.318,1.7676250113314634e+18,6.88346337890625,-2.121990442276001,0.4368543624877929,0.1788856387138366
2026-01-05 14:56:51.351,1.7676250113715663e+18,6.92356640625,-2.3058419227600098,0.6143941879272461,1.235639572143555
2026-01-05 14:56:51.384,1.7676250114016292e+18,6.95362939453125,-2.757488489151001,1.4707953929901125,2.412288546562195
2026-01-05 14:56:51.417,1.7676250114316905e+18,6.9836904296875,-2.757488489151001,1.9482488632202148,2.412288546562195
2026-01-05 14:56:51.450,1.7676250114517215e+18,7.003721435546875,-2.757488489151001,1.9482488632202148,2.412288546562195
2026-01-05 14:56:51.483,1.7676250114917944e+18,7.04379443359375,-2.2591753005981445,1.9482488632202148,0.4799827933311462
2026-01-05 14:56:51.516,1.7676250115318702e+18,7.0838701171875,-0.7756674289703369,1.3964576721191406,0.41849297285079956
2026-01-05 14:56:51.549,1.7676250115619292e+18,7.113929443359375,0.40001869201660156,0.41609525680542,0.1732482314109802
2026-01-05 14:56:51.582,1.767625011612036e+18,7.1640361328125,3.48249626159668,-2.7513341903686523,-0.5865034461021423
2026-01-05 14:56:51.615,1.7676250116320732e+18,7.1840732421875,3.48249626159668,-2.7513341903686523,-0.5865034461021423
2026-01-05 14:56:51.648,1.767625011652116e+18,7.204115966796875,3.48249626159668,-2.7513341903686523,-0.5865034461021423
2026-01-05 14:56:51.681,1.7676250116921833e+18,7.244183349609375,1.9793474674224851,-1.6735015464551521,0.5946335196495056
2026-01-05 14:56:51.714,1.7676250117322637e+18,7.284263671875,-1.755266547203064,-0.3543788100733902,1.10233396060447
2026-01-05 14:56:51.747,1.767625011762327e+18,7.3143271484375,-1.9064570665359497,0.9647541595227791,1.6100383400917053
2026-01-05 14:56:51.780,1.7676250118124247e+18,7.3644248046875,-2.7085059881210327,2.067530632019043,1.7831294536590576
2026-01-05 14:56:51.813,1.7676250118324554e+18,7.384455322265625,-2.7085059881210327,2.067530632019043,1.7831294536590576
2026-01-05 14:56:51.846,1.7676250118524966e+18,7.40449658203125,-1.9205141067504885,2.067530632019043,1.7831294536590576
2026-01-05 14:56:51.879,1.767625011892569e+18,7.444569091796875,-1.9205141067504885,1.4006414413452148,1.7831294536590576
2026-01-05 14:56:51.912,1.7676250119326262e+18,7.484626220703125,-1.6626205444335938,0.3662691116333008,1.7831294536590576
2026-01-05 14:56:51.945,1.7676250119727002e+18,7.5247001953125,-1.636403203010559,-1.2173423767089844,0.5284720659255981
2026-01-05 14:56:51.978,1.7676250119927416e+18,7.54474169921875,-1.6349709033966064,0.3662691116333008,0.5284720659255981
2026-01-05 14:56:52.011,1.7676250120127918e+18,7.564791748046875,-1.4025790691375732,-0.1995611190795898,0.387176513671875
2026-01-05 14:56:52.044,1.7676250120528865e+18,7.604886474609375,-1.0818536281585691,-0.1995611190795898,0.280888170003891
2026-01-05 14:56:52.077,1.7676250120929774e+18,7.644977294921875,-0.6869596838951111,-0.1027917861938476,0.280888170003891
2026-01-05 14:56:52.110,1.7676250121330627e+18,7.685062744140625,-0.2833294868469238,-0.0650577545166015,0.280888170003891
2026-01-05 14:56:52.143,1.7676250121731203e+18,7.725120361328125,-0.1288210153579712,-0.0650577545166015,0.3361009657382965
2026-01-05 14:56:52.176,1.7676250121931638e+18,7.745163818359375,0.2891536056995392,0.037493705749511705,0.6575927138328552
2026-01-05 14:56:52.209,1.7676250122232253e+18,7.775225341796875,0.6095257103443146,-0.0650577545166015,0.6575927138328552
2026-01-05 14:56:52.242,1.7676250122533043e+18,7.80530419921875,0.6095257103443146,0.037493705749511705,0.6575927138328552
2026-01-05 14:56:52.275,1.7676250122933937e+18,7.8453935546875,0.6095257103443146,0.037493705749511705,-0.1367252171039581
2026-01-05 14:56:52.308,1.767625012333488e+18,7.885488037109375,0.6825577753421634,-0.0718164443969726,-0.1367252171039581
2026-01-05 14:56:52.341,1.7676250123735872e+18,7.925587158203125,0.6825577753421634,-0.1186885833740234,-0.1367252171039581
2026-01-05 14:56:52.374,1.767625012393625e+18,7.945625077722387,0.6825577753421634,-0.30553383881641627,-0.1367252171039581
2026-01-05 14:56:52.407,1.7676250124136627e+18,7.965662841796875,0.7936503887176514,-0.5392494201660156,-0.1367252171039581
2026-01-05 14:56:52.440,1.76762501245376e+18,8.005760009765625,0.7981091737747192,-1.367060661315918,-0.720543622970581
2026-01-05 14:56:52.473,1.7676250124938422e+18,8.04584228515625,1.4416600763797758,-1.367060661315918,-0.720543622970581
2026-01-05 14:56:52.506,1.7676250125238979e+18,8.075897705078125,1.4416600763797758,-1.367060661315918,-0.720543622970581
2026-01-05 14:56:52.539,1.767625012553956e+18,8.1059560546875,0.7981091737747192,-1.2504196166992188,-0.206212893128395
2026-01-05 14:56:52.572,1.7676250125840148e+18,8.136015014648438,0.15302839875221255,-1.2504196166992188,0.1185044944286346
2026-01-05 14:56:52.605,1.7676250126140808e+18,8.166080810546875,-0.4232996106147766,-1.2504196166992188,0.1185044944286346
2026-01-05 14:56:52.638,1.7676250126541527e+18,8.206152587890625,-2.2041711807250977,-1.1613893508911133,0.1185044944286346
2026-01-05 14:56:52.671,1.7676250126942326e+18,8.246232666015626,-2.2543296813964844,-1.1613893508911133,-0.11044223606586456
2026-01-05 14:56:52.704,1.7676250127343142e+18,8.286314208984376,-2.3128156661987305,-1.1613893508911133,-0.11044223606586456
2026-01-05 14:56:52.737,1.7676250127593626e+18,8.311362731933594,-2.3167948126792908,-0.3937809467315674,-0.11044223606586456
2026-01-05 14:56:52.770,1.7676250127844111e+18,8.336411254882812,-2.320773959159851,0.37382745742797846,0.294105976819992
2026-01-05 14:56:52.803,1.7676250128144845e+18,8.366484375,-2.468008279800415,0.4304361343383789,0.9566382169723512
2026-01-05 14:56:52.836,1.767625012854583e+18,8.4065830078125,-3.1634676456451416,0.7683801651000977,2.00113582611084
2026-01-05 14:56:52.869,1.7676250128946621e+18,8.446662109375,-3.1634676456451416,1.148735523223877,2.00113582611084
2026-01-05 14:56:52.902,1.7676250129247104e+18,8.476710327148437,-3.1634676456451416,1.148735523223877,2.00113582611084
2026-01-05 14:56:52.935,1.7676250129547592e+18,8.50675927734375,-2.5072593688964844,1.148735523223877,1.3156968355178833
2026-01-05 14:56:52.968,1.7676250129748055e+18,8.526805419921875,-2.279928684234619,1.101696491241455,0.971685528755188
2026-01-05 14:56:53.001,1.7676250130148838e+18,8.5668837890625,-1.7765755653381348,0.9000577926635742,0.7969851493835449
2026-01-05 14:56:53.034,1.767625013054974e+18,8.606973876953125,-0.5673575401306152,0.5649871826171875,0.4923489093780517
2026-01-05 14:56:53.067,1.7676250130950766e+18,8.64707666015625,0.7854094505310059,-1.058734893798828,0.3723503649234772
2026-01-05 14:56:53.100,1.7676250131151222e+18,8.6671220703125,1.6765072345733645,-1.058734893798828,0.3094686865806579
2026-01-05 14:56:53.133,1.7676250131351524e+18,8.68715234375,1.6765072345733645,-1.4378957748413086,0.3723503649234772
2026-01-05 14:56:53.166,1.767625013185233e+18,8.737232788085937,1.6765072345733645,-1.4378957748413086,0.4923489093780517
2026-01-05 14:56:53.199,1.7676250132152957e+18,8.767295654296875,0.6858983039855957,0.2760496139526366,0.9982526302337646
2026-01-05 14:56:53.232,1.767625013255368e+18,8.807367919921875,-0.291593074798584,0.3120551109313965,1.7253180742263794
2026-01-05 14:56:53.265,1.7676250132954458e+18,8.84744580078125,-2.47003173828125,1.763270378112793,2.1805707260522467
2026-01-05 14:56:53.298,1.7676250133154803e+18,8.867480391039924,-2.919949769973755,1.763270378112793,2.1805707260522467
2026-01-05 14:56:53.331,1.7676250133355151e+18,8.88751513671875,-2.919949769973755,1.763270378112793,2.1805707260522467
2026-01-05 14:56:53.364,1.7676250133755825e+18,8.92758251953125,-2.919949769973755,1.2695410251617432,1.8055552244186401
2026-01-05 14:56:53.397,1.7676250134156503e+18,8.967650390625,-2.4575328826904297,-0.4505481719970702,1.8055552244186401
2026-01-05 14:56:53.430,1.7676250134457016e+18,8.997701538085938,-2.3668183088302612,-0.4505481719970702,1.594790667295456
2026-01-05 14:56:53.463,1.7676250134857815e+18,9.037781494140624,-2.3350696563720703,-0.06593465805053705,1.594790667295456
2026-01-05 14:56:53.496,1.7676250135108342e+18,9.062834350585938,-1.67037433385849,-0.0356149673461914,1.594790667295456
2026-01-05 14:56:53.529,1.767625013535887e+18,9.08788720703125,-1.0844944715499878,-0.06593465805053705,0.9082391858100892
2026-01-05 14:56:53.562,1.767625013575987e+18,9.127987060546875,-0.9739303588867188,-0.0356149673461914,0.6029629707336426
2026-01-05 14:56:53.595,1.7676250136060498e+18,9.1580498046875,-0.7950989007949829,0.2629075069718757,-0.11426481604576111
2026-01-05 14:56:53.628,1.7676250136562678e+18,9.208267822265626,-0.7225836515426636,0.0165376663208007,-0.11426481604576111
2026-01-05 14:56:53.661,1.7676250136763238e+18,9.228323774746126,-0.4870234029993197,0.0165376663208007,-0.11426481604576111
2026-01-05 14:56:53.694,1.76762501369638e+18,9.2483798828125,-0.2514613270759582,0.0165376663208007,0.6137380599975586
2026-01-05 14:56:53.727,1.7676250137364797e+18,9.288479736328124,0.1447574496269226,-0.1091213226318359,0.6137380599975586
2026-01-05 14:56:53.760,1.7676250137765865e+18,9.32858642578125,0.1447574496269226,-0.1091213226318359,0.6137380599975586
2026-01-05 14:56:53.793,1.76762501381668e+18,9.368679931640624,0.1447574496269226,-0.1091213226318359,-0.6728440523147583
2026-01-05 14:56:53.826,1.767625013856753e+18,9.4087529296875,0.17226362228393555,0.03855133056640625,-0.6728440523147583
2026-01-05 14:56:53.859,1.7676250138768003e+18,9.42880029296875,0.17226362228393555,0.03855133056640625,-0.6728440523147583
2026-01-05 14:56:53.892,1.7676250139068828e+18,9.4588828125,0.17226362228393555,0.03855133056640625,-0.31533217430114746
2026-01-05 14:56:53.925,1.7676250139469614e+18,9.498961303710939,0.3340805768966675,-0.37946271896362305,-0.31533217430114746
2026-01-05 14:56:53.958,1.767625013977039e+18,9.5290390625,1.146904468536377,-0.5929479598999023,-0.31533217430114746
2026-01-05 14:56:53.991,1.7676250140171412e+18,9.569141357421875,1.146904468536377,-0.7269620895385742,-1.0442984402179718
2026-01-05 14:56:54.024,1.7676250140421975e+18,9.594197509765625,1.1760693192481995,-1.5129294395446777,-1.0442984402179718
2026-01-05 14:56:54.057,1.7676250140672538e+18,9.619253662109376,1.1760693192481995,-1.5129294395446777,-1.0442984402179718
2026-01-05 14:56:54.090,1.767625014097306e+18,9.64930615234375,1.1348334550857544,-1.5129294395446777,0.0088970363140106
2026-01-05 14:56:54.123,1.7676250141374134e+18,9.689413330078125,1.0853809118270874,0.022491455078125014,1.8963334560394287
2026-01-05 14:56:54.156,1.7676250141775286e+18,9.729528564453124,-0.0007604360580444,0.022491455078125014,1.8963334560394287
2026-01-05 14:56:54.189,1.7676250142075996e+18,9.759599731445313,-0.7405138462781906,0.022491455078125014,1.8963334560394287
2026-01-05 14:56:54.222,1.7676250142326582e+18,9.784658361356701,-1.4028486893393226,-0.2464971542358398,1.640302658081055
2026-01-05 14:56:54.255,1.7676250142577167e+18,9.809716796875,-1.4028486893393226,-0.2464971542358398,1.4231227253543557
2026-01-05 14:56:54.288,1.7676250142977946e+18,9.849794677734376,-1.4028486893393226,-0.2464971542358398,0.8969208002090454
2026-01-05 14:56:54.321,1.7676250143378721e+18,9.8898720703125,-1.5117847323417664,0.4727764129638672,0.8969208002090454
2026-01-05 14:56:54.354,1.7676250143779564e+18,9.929956298828126,-1.5117847323417664,0.6364078521728516,1.640302658081055
2026-01-05 14:56:54.387,1.7676250144080305e+18,9.960030517578126,-1.5117847323417664,1.146130084991455,2.0554426312446594
2026-01-05 14:56:54.420,1.7676250144380938e+18,9.990094055175781,-1.796235352754593,1.347132682800293,2.0554426312446594
2026-01-05 14:56:54.453,1.7676250144681574e+18,10.020157592773437,-1.796235352754593,1.347132682800293,2.0554426312446594
2026-01-05 14:56:54.486,1.7676250144982141e+18,10.050214111328126,-1.796235352754593,1.347132682800293,0.8627829551696777
2026-01-05 14:56:54.519,1.767625014538312e+18,10.09031201171875,-1.2428922653198242,0.972226619720459,0.1030289530754089
2026-01-05 14:56:54.552,1.7676250145683707e+18,10.12037060546875,-0.1533505916595459,0.5830984115600586,-0.2089564502239227
2026-01-05 14:56:54.585,1.7676250145984317e+18,10.150431701660157,0.29292601346969604,0.34984636306762695,-0.2089564502239227
2026-01-05 14:56:54.618,1.7676250146284928e+18,10.180492797851562,0.739202618598938,-0.1422996520996093,-0.2089564502239227
2026-01-05 14:56:54.651,1.7676250146585498e+18,10.2105498046875,1.4590461254119873,-0.272533893585205,-0.1785433888435363
2026-01-05 14:56:54.684,1.767625014698652e+18,10.25065185546875,1.4590461254119873,-0.272533893585205,0.4133922457695007
2026-01-05 14:56:54.717,1.7676250147387574e+18,10.29075732421875,1.4590461254119873,-0.1422996520996093,1.018632888793945
2026-01-05 14:56:54.750,1.7676250147688323e+18,10.320832275390625,1.2639718055725098,0.5856270790100098,1.018632888793945
2026-01-05 14:56:54.783,1.7676250147938867e+18,10.345886596679687,0.27553749084472656,0.7090275287628174,1.1202819645404816
2026-01-05 14:56:54.816,1.767625014818941e+18,10.37094091796875,-0.0487420558929443,0.8054728834119876,1.2287103533744812
2026-01-05 14:56:54.849,1.7676250148590126e+18,10.4110126953125,-0.7128968238830566,0.8054728834119876,2.7043211460113525
2026-01-05 14:56:54.882,1.7676250148990932e+18,10.45109326171875,-1.6750094890594482,0.812211657187897,2.733773708343506
2026-01-05 14:56:54.915,1.7676250149391647e+18,10.49116455078125,-1.844841718673706,0.7987340573594288,2.733773708343506
2026-01-05 14:56:54.948,1.7676250149692237e+18,10.521223754882813,-1.844841718673706,0.7785176837550514,2.7043211460113525
2026-01-05 14:56:54.981,1.7676250149992832e+18,10.551283208600843,-1.844841718673706,0.21572862904521986,0.32033594267766485
2026-01-05 14:56:55.014,1.7676250150293427e+18,10.581342895507813,-1.6358020901679993,-0.39556455612182617,0.32033594267766485
2026-01-05 14:56:55.047,1.7676250150593925e+18,10.611392578125,-0.8050292730331421,-0.3335828781127929,0.32033594267766485
2026-01-05 14:56:55.080,1.767625015099477e+18,10.65147705078125,-0.8050292730331421,-0.3335828781127929,1.915114164352417
2026-01-05 14:56:55.113,1.7676250151395738e+18,10.69157373046875,-0.8050292730331421,0.1371078491210937,1.915114164352417
2026-01-05 14:56:55.146,1.7676250151596186e+18,10.71161865234375,-0.8928832113742828,0.1371078491210937,1.915114164352417
2026-01-05 14:56:55.179,1.7676250151796644e+18,10.731664306640624,-0.8928832113742828,0.1371078491210937,0.5956761240959167
2026-01-05 14:56:55.212,1.7676250152297718e+18,10.781771850585937,-0.8928832113742828,0.10616254806518549,-0.24875348806381226
2026-01-05 14:56:55.245,1.76762501525985e+18,10.81185009765625,-0.1936842203140258,0.0500831604003906,-0.24875348806381226
2026-01-05 14:56:55.278,1.7676250152999322e+18,10.85193212890625,0.5542973875999451,-0.0976810455322265,-0.24875348806381226
2026-01-05 14:56:55.311,1.7676250153400333e+18,10.892033203125,0.7879817485809326,-0.1277456283569336,0.0364271402359008
2026-01-05 14:56:55.344,1.7676250153600952e+18,10.91209521484375,1.0214881896972656,-0.1277456283569336,0.0364271402359008
2026-01-05 14:56:55.377,1.7676250154002097e+18,10.952209716796874,1.0214881896972656,-0.1277456283569336,0.0364271402359008
2026-01-05 14:56:55.410,1.767625015430288e+18,10.982287841796875,1.0214881896972656,-0.1908302307128906,-0.1418757438659668
2026-01-05 14:56:55.443,1.76762501546037e+18,11.012369873046875,0.763552188873291,-0.0330734252929687,-0.1418757438659668
2026-01-05 14:56:55.476,1.7676250155004718e+18,11.052471923828126,0.7277432084083557,-0.0330734252929687,-0.1418757438659668
2026-01-05 14:56:55.509,1.7676250155405535e+18,11.092553466796875,0.5270225666837475,-0.34661319277070896,0.2622904479503631
2026-01-05 14:56:55.542,1.7676250155606075e+18,11.1126073775891,0.5270225666837475,-0.3631420135498047,0.2622904479503631
2026-01-05 14:56:55.575,1.7676250155806612e+18,11.1326611328125,0.5270225666837475,-0.6601505279541016,0.2622904479503631
2026-01-05 14:56:55.608,1.767625015620774e+18,11.17277392578125,0.5270225666837475,-1.199213981628418,0.38838249179274176
2026-01-05 14:56:55.641,1.767625015660857e+18,11.212857177734374,1.1019335985183716,-2.120749308540433,0.390620082616806
2026-01-05 14:56:55.674,1.7676250157009382e+18,11.252938232421876,1.3456852436065674,-2.120749308540433,0.390620082616806
2026-01-05 14:56:55.707,1.7676250157209802e+18,11.272980302347861,1.3456852436065674,-2.120749308540433,0.6347352049209554
2026-01-05 14:56:55.740,1.7676250157410222e+18,11.293022216796874,1.3456852436065674,-1.0947275161743164,0.6347352049209554
2026-01-05 14:56:55.773,1.7676250157810916e+18,11.333091552734375,0.416214644908905,-1.0947275161743164,0.6347352049209554
2026-01-05 14:56:55.806,1.767625015821165e+18,11.3731650390625,-1.388157606124878,-1.0947275161743164,0.4856787323951721
2026-01-05 14:56:55.839,1.7676250158512294e+18,11.4032294921875,-1.9753373265266418,-1.538893699645996,-0.04360136389732358
2026-01-05 14:56:55.872,1.767625015901324e+18,11.453323974609376,-1.9753373265266418,-1.538893699645996,-0.04360136389732358
2026-01-05 14:56:55.905,1.7676250159213642e+18,11.473364135742187,-1.9753373265266418,-1.538893699645996,-0.04360136389732358
2026-01-05 14:56:55.938,1.7676250159414044e+18,11.493404296875,-1.9753373265266418,-0.7238035202026367,0.0336184501647949
2026-01-05 14:56:55.971,1.7676250159814876e+18,11.533487548828123,-1.9753373265266418,-0.5333452224731445,0.1588115096092224
2026-01-05 14:56:56.004,1.767625016021621e+18,11.57362109375,-2.544127941131592,-0.2437591552734375,0.7653509974479675
2026-01-05 14:56:56.037,1.767625016051709e+18,11.603708740234374,-3.0058412551879883,0.8918678760528563,1.9145056009292603
2026-01-05 14:56:56.070,1.767625016101809e+18,11.653808837890624,-3.0058412551879883,1.701771259307861,1.9145056009292603
2026-01-05 14:56:56.103,1.767625016121841e+18,11.673840820312499,-3.0058412551879883,1.701771259307861,1.9145056009292603
2026-01-05 14:56:56.136,1.767625016141873e+18,11.693872802734376,-2.623196601867676,1.701771259307861,1.5791654586791992
2026-01-05 14:56:56.169,1.767625016181945e+18,11.733945068359375,-2.256256341934204,1.4612760543823242,0.8639853000640869
2026-01-05 14:56:56.202,1.7676250162220073e+18,11.77400732421875,-1.4954326152801514,1.4156346321105957,0.7795767784118652
2026-01-05 14:56:56.235,1.7676250162520504e+18,11.804050659179687,-0.23952150344848636,0.4999337196350097,0.19247208535671229
2026-01-05 14:56:56.268,1.7676250162770918e+18,11.829092102050781,1.03858482837677,-0.3582002406779423,-0.1347857192158699
2026-01-05 14:56:56.301,1.7676250163021335e+18,11.854133544921876,2.05910873413086,-0.3582002406779423,-0.4620435237884521
2026-01-05 14:56:56.334,1.7676250163422085e+18,11.89420849609375,2.05910873413086,-0.3582002406779423,-0.4620435237884521
2026-01-05 14:56:56.367,1.7676250163822697e+18,11.934269775390623,2.05910873413086,0.4366345430276256,-0.4620435237884521
2026-01-05 14:56:56.400,1.7676250164223314e+18,11.974331298828124,-1.0124316215515137,0.4366345430276256,1.8529269695281985
2026-01-05 14:56:56.433,1.7676250164623939e+18,12.014393798828126,-1.1857891082763672,0.4366345430276256,2.41964054107666
2026-01-05 14:56:56.466,1.7676250164824182e+18,12.034418013150482,-2.1281672313896727,-0.11752509576847914,2.41964054107666
2026-01-05 14:56:56.499,1.7676250165024425e+18,12.0544423828125,-2.668226480484009,-0.11752509576847914,1.8529269695281985
2026-01-05 14:56:56.532,1.7676250165425055e+18,12.09450537109375,-2.1706466674804688,-0.3668351173400879,1.7564839124679563
2026-01-05 14:56:56.565,1.7676250165825797e+18,12.134579833984375,-2.1706466674804688,-0.3668351173400879,1.7564839124679563
2026-01-05 14:56:56.598,1.7676250166226414e+18,12.174641357421876,-2.1706466674804688,-0.061981201171875,1.7564839124679563
2026-01-05 14:56:56.631,1.7676250166627095e+18,12.21470947265625,-1.9664889574050903,-0.061981201171875,2.96458101272583
2026-01-05 14:56:56.664,1.7676250166827459e+18,12.234745727539064,-1.8187305331230164,0.2872066497802734,2.96458101272583
2026-01-05 14:56:56.697,1.767625016702782e+18,12.254781982421877,-1.6709721088409424,0.2872066497802734,2.96458101272583
2026-01-05 14:56:56.730,1.7676250167428442e+18,12.29484423828125,-1.6096885204315186,0.2049999237060547,1.3393287658691406
2026-01-05 14:56:56.763,1.7676250167829348e+18,12.334934814453124,-1.0785126984119415,0.2049999237060547,-0.0331804156303405
2026-01-05 14:56:56.796,1.7676250168130086e+18,12.365008666992187,-0.9959310665149546,0.26846527278231186,-0.2227032780647277
2026-01-05 14:56:56.829,1.7676250168380764e+18,12.390076379818252,-0.9756488800048828,0.2049999237060547,-0.2227032780647277
2026-01-05 14:56:56.862,1.7676250168631442e+18,12.415144287109374,-0.9133487939834596,0.2310724258422851,-0.2227032780647277
2026-01-05 14:56:56.895,1.7676250169032425e+18,12.455242431640626,-0.1331628561019897,0.2310724258422851,-0.0381010770797729
2026-01-05 14:56:56.928,1.7676250169433418e+18,12.495341796875,0.8557499647140503,0.1608514785766601,-0.0381010770797729
2026-01-05 14:56:56.961,1.7676250169834266e+18,12.535426513671876,0.8557499647140503,-0.01190185546875,-0.0381010770797729
2026-01-05 14:56:56.994,1.7676250170134979e+18,12.565497924804689,0.8557499647140503,-0.032073974609375,-0.9369946718215942
2026-01-05 14:56:57.027,1.7676250170435653e+18,12.5955654296875,0.7673930525779724,-0.1237907409667968,-0.9369946718215942
2026-01-05 14:56:57.060,1.7676250170636227e+18,12.61562255859375,0.7673930525779724,-0.257603645324707,-0.9369946718215942
2026-01-05 14:56:57.093,1.7676250171037138e+18,12.6557138671875,0.7277098894119263,-0.7060117721557617,-0.2680649012327194
2026-01-05 14:56:57.126,1.7676250171438067e+18,12.695806640625,0.7673930525779724,-0.9414443969726562,-0.2680649012327194
2026-01-05 14:56:57.159,1.7676250171838902e+18,12.73589013671875,1.0945055484771729,-1.604372501373291,0.0537200570106506
2026-01-05 14:56:57.192,1.7676250172239593e+18,12.775959228515624,1.1886141300201416,-1.604372501373291,0.2177909016609192
2026-01-05 14:56:57.225,1.7676250172439987e+18,12.79599853515625,1.0945055484771729,-1.604372501373291,0.2177909016609192
2026-01-05 14:56:57.258,1.767625017264038e+18,12.816037841796875,1.0945055484771729,-0.6721973419189453,1.050360083580017
2026-01-05 14:56:57.291,1.7676250173041334e+18,12.85613330078125,0.5612994432449341,-0.6721973419189453,1.050360083580017
2026-01-05 14:56:57.324,1.7676250173442258e+18,12.896225830078125,-1.584294080734253,-0.6721973419189453,1.050360083580017
2026-01-05 14:56:57.357,1.7676250173843177e+18,12.936317626953125,-1.874333143234253,-1.1686306584624073,0.5717411041259766
2026-01-05 14:56:57.390,1.7676250174043538e+18,12.956353837481384,-1.874333143234253,-1.1686306584624073,0.2463286519050598
2026-01-05 14:56:57.423,1.76762501742439e+18,12.976389892578124,-2.164412498474121,-1.1686306584624073,0.2174786329269409
2026-01-05 14:56:57.456,1.767625017464466e+18,13.0164658203125,-2.164412498474121,-0.3050546646118164,0.2463286519050598
2026-01-05 14:56:57.489,1.767625017504555e+18,13.056554931640624,-2.164412498474121,-0.2463569641113281,0.5717411041259766
2026-01-05 14:56:57.522,1.76762501753462e+18,13.086619873046875,-2.4722570180892944,0.483560562133789,1.2433913350105286
2026-01-05 14:56:57.555,1.7676250175847245e+18,13.136724365234375,-3.387903213500977,1.868445873260498,2.267416715621948
2026-01-05 14:56:57.588,1.767625017604761e+18,13.156761108398438,-3.387903213500977,1.868445873260498,2.267416715621948
2026-01-05 14:56:57.621,1.767625017624798e+18,13.1767978515625,-3.387903213500977,1.868445873260498,2.267416715621948
2026-01-05 14:56:57.654,1.7676250176648645e+18,13.216864501953124,-2.862654209136963,1.8587045669555664,0.5954325199127197
2026-01-05 14:56:57.687,1.767625017704926e+18,13.256926025390625,-1.4896280765533447,1.3766155242919922,0.1034943461418151
2026-01-05 14:56:57.720,1.7676250177349844e+18,13.286984375,0.20736575126647952,0.6817901134490966,0.0848207622766495
2026-01-05 14:56:57.753,1.76762501778507e+18,13.337070068359376,2.4494221210479736,-0.43464881638154074,-0.2726269960403442
2026-01-05 14:56:57.786,1.7676250178051026e+18,13.357102583430786,2.4494221210479736,-0.43464881638154074,-0.8622886316502163
2026-01-05 14:56:57.819,1.7676250178251354e+18,13.37713525390625,2.4494221210479736,-0.43464881638154074,-0.8622886316502163
2026-01-05 14:56:57.852,1.7676250178652058e+18,13.417205810546877,1.545027256011963,-0.43464881638154074,-0.8622886316502163
2026-01-05 14:56:57.885,1.7676250179052792e+18,13.457279296875,-0.5927598476409912,-0.43464881638154074,0.8601448929743147
2026-01-05 14:56:57.918,1.7676250179353277e+18,13.487327758789064,-1.521106481552124,-0.1205968856811523,2.4975724816322327
2026-01-05 14:56:57.951,1.7676250179603753e+18,13.512375183105469,-1.804219901561737,-0.1205968856811523,2.4975724816322327
2026-01-05 14:56:57.984,1.7676250179854226e+18,13.537422607421876,-2.08733332157135,-1.4115542178689195,2.4975724816322327
2026-01-05 14:56:58.017,1.767625018025514e+18,13.577513916015626,-2.279665231704712,-0.7140607833862305,1.6324949264526367
2026-01-05 14:56:58.050,1.7676250180655913e+18,13.61759130859375,-2.283525586128235,0.06100738048553467,1.6324949264526367
2026-01-05 14:56:58.083,1.7676250181056663e+18,13.657666259765625,-2.283525586128235,0.518181576880687,1.585311431147222
2026-01-05 14:56:58.116,1.767625018145741e+18,13.697740966796877,-2.279665231704712,-0.7140607833862305,0.11304408311843872
2026-01-05 14:56:58.149,1.7676250181707914e+18,13.722791528810559,-2.1220599114405894,0.518181576880687,0.11304408311843872
2026-01-05 14:56:58.182,1.767625018195842e+18,13.74784228515625,-1.7763170003890991,0.6385059356689453,0.11304408311843872
2026-01-05 14:56:58.215,1.7676250182259123e+18,13.777912353515624,-1.3977110385894775,0.518181576880687,7.09295272827e-05
2026-01-05 14:56:58.248,1.767625018266009e+18,13.818009033203126,-1.3563047647476196,0.1657943725585937,7.09295272827e-05
2026-01-05 14:56:58.281,1.7676250183061164e+18,13.858116455078124,-0.9563456177711488,0.1812858581542968,-0.4958693981170654
2026-01-05 14:56:58.314,1.7676250183462213e+18,13.89822119140625,-0.445361852645874,0.1812858581542968,-0.8827102780342102
2026-01-05 14:56:58.347,1.7676250183662707e+18,13.918270751953123,-0.2138298153877258,0.1657943725585937,7.09295272827e-05
2026-01-05 14:56:58.380,1.767625018386327e+18,13.9383271484375,-0.172031819820404,-0.0757169723510742,-0.1918509602546692
2026-01-05 14:56:58.413,1.7676250184263972e+18,13.978397216796877,-0.0633890628814697,0.1812858581542968,-0.2909274697303772
2026-01-05 14:56:58.446,1.7676250184664942e+18,14.018494140625,0.3134732842445373,-0.0757169723510742,-0.1989362388849258
2026-01-05 14:56:58.479,1.7676250184965768e+18,14.04857666015625,0.3134732842445373,-0.12743330001831052,-0.1918509602546692
2026-01-05 14:56:58.512,1.767625018521643e+18,14.073642822265626,0.36755530536174774,-0.2731409072875976,-0.1918509602546692
2026-01-05 14:56:58.545,1.767625018546709e+18,14.098708984375,0.7908803820610046,-0.4766492843627929,-0.1989362388849258
2026-01-05 14:56:58.578,1.7676250185868703e+18,14.138870361328124,0.7908803820610046,-0.856144905090332,-0.1989362388849258
2026-01-05 14:56:58.611,1.7676250186269627e+18,14.178962646484376,1.0614497661590576,-1.2899894714355469,-0.2405499815940857
2026-01-05 14:56:58.644,1.767625018667048e+18,14.2190478515625,1.0614497661590576,-1.3391504287719729,-0.2405499815940857
2026-01-05 14:56:58.677,1.7676250187071255e+18,14.25912548828125,1.0614497661590576,-1.3391504287719729,-0.2405499815940857
2026-01-05 14:56:58.710,1.767625018727166e+18,14.279166015625,0.3550906777381897,-1.3391504287719729,0.1511006653308868
2026-01-05 14:56:58.743,1.7676250187472246e+18,14.299224609375,0.3267968893051147,-1.015273094177246,0.1511006653308868
2026-01-05 14:56:58.776,1.7676250187873219e+18,14.33932177734375,0.2443336695432663,-1.015273094177246,0.1511006653308868
2026-01-05 14:56:58.809,1.7676250188274276e+18,14.379427490234375,-1.8812469244003296,-1.015273094177246,-0.3044593930244446
2026-01-05 14:56:58.842,1.7676250188676644e+18,14.419664306640623,-2.4149436950683594,-1.0181362628936768,-0.3044593930244446
2026-01-05 14:56:58.875,1.767625018907743e+18,14.459742919921876,-2.4149436950683594,-1.0181362628936768,-0.3044593930244446
2026-01-05 14:56:58.908,1.767625018932808e+18,14.484807922363283,-2.4149436950683594,-1.0181362628936768,-0.21397611498832703
2026-01-05 14:56:58.941,1.767625018957873e+18,14.50987292480469,-2.4149436950683594,-0.3521924018859863,0.01737064123153685
2026-01-05 14:56:58.974,1.7676250189879578e+18,14.539957763671875,-2.4149436950683594,0.2872762680053711,0.4692491292953491
2026-01-05 14:56:59.007,1.767625019028064e+18,14.58006396484375,-2.96583354473114,0.8987703323364258,1.6644690632820132
2026-01-05 14:56:59.040,1.767625019068177e+18,14.620177001953126,-2.96583354473114,1.449209213256836,1.6644690632820132
2026-01-05 14:56:59.073,1.7676250190882217e+18,14.6402216796875,-2.96583354473114,1.449209213256836,1.6644690632820132
2026-01-05 14:56:59.106,1.7676250191082662e+18,14.660266357421875,-2.5855369567871094,1.449209213256836,1.0829366445541382
2026-01-05 14:56:59.139,1.7676250191483384e+18,14.70033837890625,-1.9477503299713133,1.1006860733032229,0.5875194072723389
2026-01-05 14:56:59.172,1.7676250191884326e+18,14.7404326171875,-1.2278151512145996,0.6698036193847656,0.5737835764884949
2026-01-05 14:56:59.205,1.7676250192285422e+18,14.780542236328126,-0.7056608200073242,0.3367862701416015,0.3174650967121124
2026-01-05 14:56:59.238,1.7676250192686554e+18,14.8206552734375,0.7867581844329834,-0.8744287490844727,0.3174650967121124
2026-01-05 14:56:59.271,1.7676250192887045e+18,14.84070458984375,1.3923060894012451,-0.8744287490844727,0.0561174601316452
2026-01-05 14:56:59.304,1.767625019308754e+18,14.86075390625,1.3923060894012451,-0.8744287490844727,-0.205230176448822
2026-01-05 14:56:59.337,1.7676250193588577e+18,14.910857666015625,1.3923060894012451,0.7393994933979917,-0.205230176448822
2026-01-05 14:56:59.370,1.7676250193889175e+18,14.94091748046875,-0.4837796688079834,0.7393994933979917,-0.205230176448822
2026-01-05 14:56:59.403,1.7676250194290007e+18,14.981000732421874,-0.7981665134429932,0.7393994933979917,1.434546709060669
2026-01-05 14:56:59.436,1.7676250194490437e+18,15.001043701171875,-1.535413146018982,0.2548227310180664,2.2196015119552612
2026-01-05 14:56:59.469,1.7676250194690867e+18,15.021086669921877,-2.271118402481079,0.2548227310180664,2.2196015119552612
2026-01-05 14:56:59.502,1.767625019509162e+18,15.061161865234377,-2.271118402481079,-0.2740335464477539,1.434546709060669
2026-01-05 14:56:59.535,1.767625019549247e+18,15.1012470703125,-2.271118402481079,-0.2740335464477539,0.7357416152954102
2026-01-05 14:56:59.568,1.7676250195893343e+18,15.141334228515625,-2.271118402481079,0.06341034484018837,0.37039488498398865
2026-01-05 14:56:59.601,1.767625019629409e+18,15.181408935546877,-1.8780021667480469,0.06341034484018837,0.37039488498398865
2026-01-05 14:56:59.634,1.7676250196494538e+18,15.201453657602189,-1.8609027795350177,-0.2740335464477539,0.37039488498398865
2026-01-05 14:56:59.667,1.7676250196694986e+18,15.22149853515625,-1.8438035249710083,0.06341034484018837,0.6168354153633118
2026-01-05 14:56:59.700,1.767625019719628e+18,15.271628051757812,-1.5301907062530518,0.06341034484018837,0.6168354153633118
2026-01-05 14:56:59.733,1.7676250197497167e+18,15.301716796875,-1.5068910121917725,-0.07222223281860345,0.6168354153633118
2026-01-05 14:56:59.766,1.767625019789826e+18,15.341825927734376,-1.1610119342803955,-0.07222223281860345,-0.5202376246452332
2026-01-05 14:56:59.799,1.767625019819903e+18,15.37190283203125,-1.1140274107456207,0.0950555801391601,-0.538754791021347
2026-01-05 14:56:59.832,1.7676250198449572e+18,15.396957275390625,-0.7136305123567581,0.14038753509521484,-0.538754791021347
2026-01-05 14:56:59.865,1.7676250198700116e+18,15.42201171875,-0.3132336139678955,0.1612071990966797,-0.538754791021347
2026-01-05 14:56:59.898,1.7676250199201377e+18,15.472137573242186,-0.14956513047218317,0.1803493499755859,-0.1470767259597778
2026-01-05 14:56:59.931,1.7676250199502226e+18,15.50222265625,0.1072270274162292,0.1612071990966797,-0.1470767259597778
2026-01-05 14:56:59.964,1.767625019990326e+18,15.542325927734376,0.1867068409919738,0.14038753509521484,-0.1470767259597778
2026-01-05 14:56:59.997,1.767625020010381e+18,15.562381103515625,0.1867068409919738,0.1612071990966797,-0.5883428007364273
2026-01-05 14:57:00.030,1.767625020030444e+18,15.582444091796877,0.8110831379890442,-0.032358169555664,-0.5883428007364273
2026-01-05 14:57:00.063,1.7676250200805868e+18,15.632586791992185,0.4194803833961487,-0.1510810852050781,-0.5883428007364273
2026-01-05 14:57:00.096,1.7676250201106463e+18,15.662646240234375,0.4194803833961487,-0.1815481185913086,-0.5883428007364273
2026-01-05 14:57:00.129,1.7676250201507558e+18,15.702755859375,0.4194803833961487,-0.428013801574707,-0.5883428007364273
2026-01-05 14:57:00.162,1.7676250201908733e+18,15.742873291015623,0.4194803833961487,-0.6969642639160156,-0.9490240812301636
2026-01-05 14:57:00.195,1.76762502021092e+18,15.762919999631478,0.4194803833961487,-1.7913608084754693,-1.7189712524414062
2026-01-05 14:57:00.228,1.7676250202309665e+18,15.782966552734376,0.9217787384986876,-1.7913608084754693,-1.7189712524414062
2026-01-05 14:57:00.261,1.7676250202710477e+18,15.823047607421875,0.9217787384986876,-1.7913608084754693,-1.7189712524414062
2026-01-05 14:57:00.294,1.7676250203111508e+18,15.86315087890625,0.9217787384986876,-0.9528799057006836,-0.3241306245326996
2026-01-05 14:57:00.327,1.7676250203412234e+18,15.893223266601563,0.9217787384986876,-0.36793017387390137,-0.3241306245326996
2026-01-05 14:57:00.360,1.7676250203813028e+18,15.933302856445312,-0.19669598340988165,-0.36793017387390137,-0.3241306245326996
2026-01-05 14:57:00.393,1.767625020406355e+18,15.958354919433594,-2.1429611146450043,-0.36793017387390137,-0.5771173983812332
2026-01-05 14:57:00.426,1.767625020431407e+18,15.983406982421876,-2.610173225402832,-1.254375457763672,-2.105118989944458
2026-01-05 14:57:00.459,1.767625020471479e+18,16.02347900390625,-3.02737045288086,-1.254375457763672,-2.105118989944458
2026-01-05 14:57:00.492,1.7676250205115574e+18,16.063557373046876,-3.4381673772670016,-1.254375457763672,-2.105118989944458
2026-01-05 14:57:00.525,1.7676250205516447e+18,16.103644775390624,-3.4381673772670016,-0.8882980346679688,-2.077038526535034
2026-01-05 14:57:00.558,1.7676250205716854e+18,16.123685502537963,-3.4381673772670016,-0.4115825282212485,-1.6060738177315277
2026-01-05 14:57:00.591,1.767625020591726e+18,16.14372607421875,-3.848961114883423,-0.1243858337402343,-1.135112762451172
2026-01-05 14:57:00.624,1.7676250206318305e+18,16.18383056640625,-3.848961114883423,-0.1243858337402343,-0.2025701403617859
2026-01-05 14:57:00.657,1.7676250206719296e+18,16.2239296875,-3.848961114883423,-0.1243858337402343,0.029068708419799846
2026-01-05 14:57:00.690,1.7676250207019996e+18,16.253999633789064,-3.687166690826416,-0.2561168670654297,0.029068708419799846
2026-01-05 14:57:00.723,1.767625020742082e+18,16.29408215332031,-2.6146163940429688,-0.5936226844787598,0.029068708419799846
2026-01-05 14:57:00.756,1.767625020767137e+18,16.31913702392578,-2.373355954885483,-0.5936226844787598,0.029068708419799846
2026-01-05 14:57:00.789,1.767625020792192e+18,16.34419189453125,-2.132095515727997,-0.5936226844787598,0.029068708419799846
2026-01-05 14:57:00.822,1.7676250208322578e+18,16.3842578125,-1.5241990089416504,-0.0340557098388671,-0.19515834748744965
2026-01-05 14:57:00.855,1.7676250208723407e+18,16.4243408203125,-1.5241990089416504,0.18450641632080078,-0.4193854033946991
2026-01-05 14:57:00.888,1.7676250209024102e+18,16.45441015625,-1.5241990089416504,0.26782809801854784,-2.957240104675293
2026-01-05 14:57:00.921,1.767625020942507e+18,16.494507080078122,-2.3288583755493164,0.26782809801854784,-2.957240104675293
2026-01-05 14:57:00.954,1.7676250209675692e+18,16.519569116656672,-2.3288583755493164,0.26782809801854784,-2.957240104675293
2026-01-05 14:57:00.987,1.7676250209926313e+18,16.54463134765625,-2.3288583755493164,0.29627704620361334,-2.916051149368286
2026-01-05 14:57:01.020,1.7676250210327235e+18,16.584723388671875,-2.3288583755493164,0.26782809801854784,-1.8616777658462524
2026-01-05 14:57:01.053,1.7676250210727913e+18,16.624791259765626,-2.3288583755493164,0.2393789291381836,-1.8616777658462524
2026-01-05 14:57:01.086,1.7676250211128704e+18,16.664870361328123,-0.8477165699005127,-0.5220327377319336,-1.8616777658462524
2026-01-05 14:57:01.119,1.7676250211329052e+18,16.6849052734375,-0.8477165699005127,-0.5220327377319336,-1.8616777658462524
2026-01-05 14:57:01.152,1.7676250211529603e+18,16.704960205078127,-0.8477165699005127,-0.5220327377319336,-1.8616777658462524
2026-01-05 14:57:01.185,1.76762502120307e+18,16.75506982421875,-0.501367524266243,-0.28004217147827143,-0.5099111795425415
2026-01-05 14:57:01.218,1.7676250212331517e+18,16.78515185546875,-0.501367524266243,-0.1580114364624023,-0.5099111795425415
2026-01-05 14:57:01.251,1.7676250212632325e+18,16.815232299804684,-0.501367524266243,-0.1580114364624023,-0.5099111795425415
2026-01-05 14:57:01.284,1.767625021313339e+18,16.8653388671875,-0.5353327989578247,-0.2607117484055355,-0.8242111057043076
2026-01-05 14:57:01.317,1.7676250213383918e+18,16.890391870597963,-0.5353327989578247,-0.2607117484055355,-0.8242111057043076
2026-01-05 14:57:01.350,1.767625021363445e+18,16.915445068359375,-0.7689617005889723,-0.1580114364624023,-1.4957488775253296
2026-01-05 14:57:01.383,1.7676250213935214e+18,16.945521484375,-0.9323232173919678,-0.0073843002319335,-1.1854925155639648
2026-01-05 14:57:01.416,1.7676250214336302e+18,16.985630126953126,-1.0025924146175385,0.13773775100708005,-0.8242111057043076
2026-01-05 14:57:01.449,1.7676250214737347e+18,17.025734619140625,-1.0704469680786133,0.13773775100708005,-0.613145649433136
2026-01-05 14:57:01.482,1.767625021503809e+18,17.055808959960938,-1.0704469680786133,0.0611143112182617,-0.5988937169313431
2026-01-05 14:57:01.515,1.7676250215338888e+18,17.085888671875,-1.0704469680786133,0.13773775100708005,0.0377877354621887
2026-01-05 14:57:01.548,1.767625021553924e+18,17.105924072265626,-0.6533383131027222,0.0611143112182617,0.0377877354621887
2026-01-05 14:57:01.581,1.7676250215940283e+18,17.1460283203125,-0.3018866777420044,0.0611143112182617,0.0377877354621887
2026-01-05 14:57:01.614,1.7676250216241034e+18,17.176103515625,0.2237670421600341,0.1001853942871093,0.0100045204162597
2026-01-05 14:57:01.647,1.7676250216742346e+18,17.226234619140627,0.33949714899063105,0.16770553588867182,-0.05178725719451904
2026-01-05 14:57:01.680,1.7676250216942884e+18,17.24628820800781,0.455227255821228,0.1001853942871093,-0.1135790348052978
2026-01-05 14:57:01.713,1.767625021714342e+18,17.266341796875,0.455227255821228,0.1001853942871093,-0.1135790348052978
2026-01-05 14:57:01.746,1.7676250217644695e+18,17.316469482421873,0.6772565841674805,-0.35330152511596674,-1.1421779990196228
2026-01-05 14:57:01.779,1.7676250217945313e+18,17.34653125,0.8227241933345795,-0.8284702301025391,-1.2598139345645905
2026-01-05 14:57:01.812,1.767625021834642e+18,17.386641845703124,0.907215416431427,-1.3472730583788426,-1.2598139345645905
2026-01-05 14:57:01.845,1.7676250218647255e+18,17.416725341796877,1.5647161602973938,-1.3472730583788426,-1.2598139345645905
2026-01-05 14:57:01.878,1.7676250218897892e+18,17.441789037645883,1.5647161602973938,-1.3472730583788426,-1.0856692790985107
2026-01-05 14:57:01.911,1.7676250219148526e+18,17.4668525390625,1.5647161602973938,-1.087749481201172,-0.9676121613385478
2026-01-05 14:57:01.944,1.7676250219549642e+18,17.506964111328124,1.199190974235535,-0.4471807479858398,-0.675412654876709
2026-01-05 14:57:01.977,1.767625021995069e+18,17.54706884765625,0.8989723920822144,-0.4471807479858398,-0.3449751734733581
2026-01-05 14:57:02.010,1.7676250220351562e+18,17.58715625,-0.8500826358795166,-0.4471807479858398,-0.3449751734733581
2026-01-05 14:57:02.043,1.7676250220752543e+18,17.627254150390623,-1.9417707920074463,-0.7835988998413086,-0.3449751734733581
2026-01-05 14:57:02.076,1.7676250220953042e+18,17.64730419921875,-2.058623790740967,-0.930262565612793,-1.0089240074157717
2026-01-05 14:57:02.109,1.7676250221153705e+18,17.66737060546875,-2.190631866455078,-1.0816736221313477,-1.0089240074157717
2026-01-05 14:57:02.142,1.7676250221554834e+18,17.7074833984375,-2.190631866455078,-0.930262565612793,-1.0089240074157717
2026-01-05 14:57:02.175,1.7676250221955978e+18,17.747597900390623,-2.190631866455078,-0.7835988998413086,0.2023218274116516
2026-01-05 14:57:02.208,1.7676250222357033e+18,17.787703369140626,-1.8873264789581297,-0.2192163467407226,0.5592167377471924
2026-01-05 14:57:02.241,1.767625022255747e+18,17.807747192382813,-1.8873264789581297,0.07375001907348638,1.101572871208191
2026-01-05 14:57:02.274,1.767625022275791e+18,17.827791015625,-1.8873264789581297,0.3667163848876953,1.6439290046691897
2026-01-05 14:57:02.307,1.7676250223259223e+18,17.87792224121094,-2.111135721206665,0.3888545036315918,1.6537861824035645
2026-01-05 14:57:02.340,1.7676250223560136e+18,17.908013671875,-2.1479978561401367,0.81268310546875,1.6537861824035645
2026-01-05 14:57:02.373,1.7676250223961226e+18,17.94812255859375,-2.1479978561401367,1.3501157760620115,1.6537861824035645
2026-01-05 14:57:02.406,1.767625022436229e+18,17.98822900390625,-2.111135721206665,1.3501157760620115,1.5547735691070557
2026-01-05 14:57:02.439,1.7676250224562783e+18,18.008278198242188,-1.843901515007019,1.3501157760620115,1.5484819412231445
2026-01-05 14:57:02.472,1.7676250224763274e+18,18.028327392578124,-1.5398051738739014,1.323780536651611,1.5421903133392334
2026-01-05 14:57:02.505,1.7676250225164142e+18,18.068414306640623,-0.270726203918457,0.4782419204711914,1.436617136001587
2026-01-05 14:57:02.538,1.76762502255652e+18,18.10852001953125,0.7444131374359131,-0.5014686584472656,0.4864800572395324
2026-01-05 14:57:02.571,1.767625022596604e+18,18.14860400390625,2.0761046409606934,-0.5014686584472656,-0.0453527569770813
2026-01-05 14:57:02.604,1.7676250226366904e+18,18.1886904296875,2.0761046409606934,-0.5014686584472656,-0.6116310954093933
2026-01-05 14:57:02.637,1.7676250226567352e+18,18.208735273812653,2.0761046409606934,-1.1492023468017578,-0.6116310954093933
2026-01-05 14:57:02.670,1.7676250226767803e+18,18.2287802734375,1.7206897735595703,-1.1799840927124023,-0.6116310954093933
2026-01-05 14:57:02.703,1.7676250227168801e+18,18.268880126953125,0.4465115070343017,-0.24696950413504903,1.7930961847305298
2026-01-05 14:57:02.736,1.7676250227469783e+18,18.29897814941406,-0.0902662277221679,0.6860523223876953,2.224897861480713
2026-01-05 14:57:02.769,1.767625022797123e+18,18.349123046875,-0.508676290512085,1.141916275024414,2.224897861480713
2026-01-05 14:57:02.802,1.767625022817164e+18,18.3691640625,-1.4056206941604614,1.141916275024414,1.7930961847305298
2026-01-05 14:57:02.835,1.767625022837217e+18,18.389217041015623,-1.3320643901824951,1.141916275024414,1.31779146194458
2026-01-05 14:57:02.868,1.7676250228772995e+18,18.429299560546877,-1.3320643901824951,0.2495784759521484,1.209630012512207
2026-01-05 14:57:02.901,1.767625022917384e+18,18.469384033203124,-1.3320643901824951,-0.1572732925415039,1.209630012512207
2026-01-05 14:57:02.934,1.7676250229574756e+18,18.5094755859375,-1.3096530437469482,-0.1572732925415039,1.209630012512207
2026-01-05 14:57:02.967,1.7676250229975532e+18,18.54955322265625,-1.2654109001159668,-0.1572732925415039,1.209630012512207
2026-01-05 14:57:03.000,1.767625023017599e+18,18.56959887695313,-1.1861264109611511,-0.1540393829345703,1.209630012512207
2026-01-05 14:57:03.033,1.767625023047675e+18,18.599674926757814,-1.2654109001159668,0.0756440162658691,0.5499750673770905
2026-01-05 14:57:03.066,1.7676250230777595e+18,18.62975952148437,-1.1861264109611511,0.0866928100585937,0.5386562347412109
2026-01-05 14:57:03.099,1.7676250231178573e+18,18.66985717773437,-1.0779378414154053,0.0866928100585937,0.007571479481743748
2026-01-05 14:57:03.132,1.7676250231579643e+18,18.70996435546875,-0.4906456470489502,0.0866928100585937,0.007571479481743748
2026-01-05 14:57:03.165,1.7676250231830275e+18,18.73502749067585,-0.355082694996103,0.02780364943951316,0.41330859065055847
2026-01-05 14:57:03.198,1.767625023208091e+18,18.7600908203125,-0.309565782546997,-0.031085968017578146,0.007571479481743748
2026-01-05 14:57:03.231,1.7676250232381514e+18,18.7901513671875,-0.2195186913013458,-0.0647525787353515,0.007571479481743748
2026-01-05 14:57:03.264,1.7676250232782538e+18,18.83025390625,0.4401366114616394,-0.0647525787353515,-0.002291202545166
2026-01-05 14:57:03.297,1.7676250233183616e+18,18.870361572265622,0.5183994657935157,-0.0647525787353515,-0.0449548363685607
2026-01-05 14:57:03.330,1.7676250233584676e+18,18.910467529296877,0.5183994657935157,0.1169586181640625,-0.5107449889183044
2026-01-05 14:57:03.363,1.76762502337852e+18,18.930520097310456,0.5597072243690491,0.1169586181640625,-0.5107449889183044
2026-01-05 14:57:03.396,1.7676250233985725e+18,18.950572509765625,0.5597072243690491,0.1169586181640625,-0.5107449889183044
2026-01-05 14:57:03.429,1.7676250234487058e+18,19.000705810546876,0.6661206483840941,0.0698142051696777,-0.3108570277690887
2026-01-05 14:57:03.462,1.767625023478763e+18,19.03076293945313,0.897973358631134,-0.2071819305419922,-0.3108570277690887
2026-01-05 14:57:03.495,1.7676250235188695e+18,19.070869384765626,0.9720373749732972,-0.4135751724243164,-0.3108570277690887
2026-01-05 14:57:03.528,1.7676250235589852e+18,19.110985107421875,0.9720373749732972,-0.6578350067138672,-0.9726097583770752
2026-01-05 14:57:03.561,1.767625023579034e+18,19.1310341796875,1.158163070678711,-1.6593642234802246,-0.9726097583770752
2026-01-05 14:57:03.594,1.7676250235990833e+18,19.151083251953125,1.3940666913986206,-1.6593642234802246,-0.9726097583770752
2026-01-05 14:57:03.627,1.7676250236391708e+18,19.1911708984375,1.158163070678711,-1.6593642234802246,-0.319617360830307
2026-01-05 14:57:03.660,1.7676250236792635e+18,19.231263427734376,0.9222594499588012,-0.4998130798339844,1.3431687355041504
2026-01-05 14:57:03.693,1.767625023719344e+18,19.27134423828125,0.73590487241745,-0.4220571517944336,2.044598340988159
2026-01-05 14:57:03.726,1.7676250237444152e+18,19.29641531941281,-0.22069111468627234,-0.4220571517944336,2.044598340988159
2026-01-05 14:57:03.759,1.7676250237694863e+18,19.321486206054686,-1.177279680967331,-0.4220571517944336,2.044598340988159
2026-01-05 14:57:03.792,1.7676250237995804e+18,19.351580322265622,-1.9195806980133057,-1.0690293312072754,1.2590328454971311
2026-01-05 14:57:03.825,1.7676250238396672e+18,19.391667236328125,-1.9195806980133057,-1.0690293312072754,1.2570513486862185
2026-01-05 14:57:03.858,1.7676250238697375e+18,19.421737426757815,-1.9195806980133057,-1.0690293312072754,1.0019683837890625
2026-01-05 14:57:03.891,1.767625023919865e+18,19.471864990234376,-1.8127849102020264,-0.3141813278198242,1.0019683837890625
2026-01-05 14:57:03.924,1.767625023939905e+18,19.491904907226562,-1.8127849102020264,0.18349933624267578,1.0019683837890625
2026-01-05 14:57:03.957,1.7676250239599447e+18,19.51194482421875,-1.8127849102020264,0.6811800003051758,1.634898662567139
2026-01-05 14:57:03.990,1.7676250240000381e+18,19.5520380859375,-1.984264850616455,1.1876626014709473,1.634898662567139
2026-01-05 14:57:04.023,1.7676250240401313e+18,19.59213134765625,-1.984264850616455,1.1876626014709473,1.634898662567139
2026-01-05 14:57:04.056,1.767625024080226e+18,19.63222607421875,-1.984264850616455,1.1876626014709473,0.1396973729133606
2026-01-05 14:57:04.089,1.7676250241103058e+18,19.662305908203123,-1.2713223695755005,0.870025634765625,-0.3677296042442322
2026-01-05 14:57:04.122,1.7676250241353684e+18,19.68736843306103,-0.9065211260069945,0.8625941564802131,-0.3677296042442322
2026-01-05 14:57:04.155,1.767625024160431e+18,19.71243115234375,-0.5417170524597168,0.8551626205444336,-0.3677296042442322
2026-01-05 14:57:04.188,1.767625024200514e+18,19.75251416015625,0.1262400150299072,0.1331052780151367,-0.1317668557167053
2026-01-05 14:57:04.221,1.7676250242406218e+18,19.792621826171874,2.468680620193481,-0.9814558029174804,-0.1117976903915405
2026-01-05 14:57:04.254,1.7676250242706964e+18,19.822696289062502,2.468680620193481,-0.9814558029174804,-0.06782370805740359
2026-01-05 14:57:04.287,1.7676250243007588e+18,19.8527587890625,2.468680620193481,-0.9814558029174804,0.2262670695781707
2026-01-05 14:57:04.320,1.7676250243207985e+18,19.872798583984373,2.4525325298309326,-1.4266586303710938,0.4225704669952392
2026-01-05 14:57:04.353,1.7676250243608806e+18,19.91288061523437,-0.2539050579071045,-1.4266586303710938,0.4225704669952392
2026-01-05 14:57:04.386,1.7676250244009733e+18,19.952973388671875,-0.9743845462799072,0.2955942153930664,0.7662139534950256
2026-01-05 14:57:04.419,1.767625024441053e+18,19.993052978515625,-1.7517507076263428,0.2955942153930664,1.4809786073215385
2026-01-05 14:57:04.452,1.76762502448114e+18,20.033139892578124,-3.1387662732257566,1.655750751495361,1.4809786073215385
2026-01-05 14:57:04.485,1.7676250245011843e+18,20.05318424842392,-1.7517507076263428,1.655750751495361,0.7662139534950256
2026-01-05 14:57:04.518,1.7676250245212288e+18,20.073228759765627,-1.7517507076263428,1.655750751495361,0.7662139534950256
2026-01-05 14:57:04.551,1.7676250245604106e+18,20.11241064453125,-1.3222462236881256,0.0624580383300781,0.7150862812995911
2026-01-05 14:57:04.584,1.767625024600497e+18,20.152496826171877,-1.3222462236881256,0.0243968963623047,0.7150862812995911
2026-01-05 14:57:04.617,1.7676250246306422e+18,20.18264221191406,-1.3222462236881256,-0.0614881515502929,0.7150862812995911
2026-01-05 14:57:04.650,1.7676250246807421e+18,20.2327421875,-1.3222462236881256,0.0243968963623047,0.764550119638443
2026-01-05 14:57:04.683,1.7676250247007788e+18,20.25277880859375,-1.3222462236881256,0.0243968963623047,0.764550119638443
2026-01-05 14:57:04.716,1.7676250247308524e+18,20.282852294921874,-1.173654317855835,-0.0614881515502929,0.764550119638443
2026-01-05 14:57:04.749,1.7676250247609354e+18,20.31293530273437,-0.9345923364162446,0.236297607421875,0.5365378856658936
2026-01-05 14:57:04.782,1.767625024801037e+18,20.353037109375,-0.4843284487724304,0.236297607421875,0.1886205673217773
2026-01-05 14:57:04.815,1.7676250248411464e+18,20.393146484375,-0.1055545806884765,0.09700679779052734,-0.0296709537506103
2026-01-05 14:57:04.848,1.7676250248611968e+18,20.41319677734375,0.22396415472030645,0.0642347335815429,-0.0296709537506103
2026-01-05 14:57:04.881,1.767625024881247e+18,20.4332470703125,0.5534828901290894,0.09700679779052734,-0.03568741679191585
2026-01-05 14:57:04.914,1.7676250249213292e+18,20.4733291015625,0.7541272342205048,0.09700679779052734,-0.0417038798332214
2026-01-05 14:57:04.947,1.7676250249614354e+18,20.513435302734376,0.7541272342205048,0.0642347335815429,-0.177814781665802
2026-01-05 14:57:04.980,1.767625024991509e+18,20.54350915527344,0.7541272342205048,0.0642347335815429,-1.0138961970806122
2026-01-05 14:57:05.013,1.7676250250416315e+18,20.593631591796875,0.0706876516342163,-0.0561962127685546,-1.0751771926879885
2026-01-05 14:57:05.046,1.7676250250616786e+18,20.6136787109375,0.0706876516342163,-0.3580923080444336,-1.0751771926879885
2026-01-05 14:57:05.079,1.7676250250817344e+18,20.633734375,0.0706876516342163,-0.4912824630737304,-1.0751771926879885
2026-01-05 14:57:05.112,1.767625025121828e+18,20.673828125,1.3477461338043213,-1.0104846954345703,-1.0751771926879885
2026-01-05 14:57:05.145,1.767625025161897e+18,20.71389697265625,1.3529361486434937,-1.0334463119506836,-1.0751771926879885
2026-01-05 14:57:05.178,1.767625025201989e+18,20.75398901367188,1.725801706314087,-1.3190786838531494,-1.4454145208001137
2026-01-05 14:57:05.211,1.76762502523206e+18,20.784059936523438,1.848297357559204,-1.3190786838531494,-1.4454145208001137
2026-01-05 14:57:05.244,1.7676250252571203e+18,20.809120178222656,1.935801982879639,-1.3190786838531494,-1.4454145208001137
2026-01-05 14:57:05.277,1.7676250252821804e+18,20.834180419921875,1.935801982879639,-0.6415586471557617,-0.1351245194673538
2026-01-05 14:57:05.310,1.7676250253222602e+18,20.87426025390625,1.935801982879639,-0.6415586471557617,0.9513269066810608
2026-01-05 14:57:05.343,1.767625025362359e+18,20.91435913085937,0.0066910088062286,-0.6415586471557617,0.9513269066810608
2026-01-05 14:57:05.376,1.7676250254024453e+18,20.9544453125,-1.9187620878219604,-1.8938331604003904,0.9513269066810608
2026-01-05 14:57:05.409,1.767625025422481e+18,20.97448095703125,-1.9187620878219604,-1.9842729568481443,0.9513269066810608
2026-01-05 14:57:05.442,1.7676250254525358e+18,21.004535888671874,-1.9187620878219604,-1.9842729568481443,0.6783366501331329
2026-01-05 14:57:05.475,1.7676250254826004e+18,21.034600341796875,-1.5892999172210691,-1.9842729568481443,0.4036208391189575
2026-01-05 14:57:05.508,1.7676250255226898e+18,21.074689697265622,-1.5892999172210691,-0.6667985916137695,0.6783366501331329
2026-01-05 14:57:05.541,1.76762502556279e+18,21.11478979492188,-1.5892999172210691,-0.4283170700073242,1.0018296241760254
2026-01-05 14:57:05.574,1.7676250256028905e+18,21.15489038085937,-2.103416204452514,1.052809715270996,2.4767544269561768
2026-01-05 14:57:05.607,1.7676250256229253e+18,21.174925170898433,-2.810606598854065,2.1190030574798584,2.4767544269561768
2026-01-05 14:57:05.640,1.76762502564296e+18,21.1949599609375,-2.810606598854065,2.1190030574798584,2.4767544269561768
2026-01-05 14:57:05.673,1.7676250256930552e+18,21.24505517578125,-2.810606598854065,2.1190030574798584,1.1292350590229034
2026-01-05 14:57:05.706,1.7676250257231247e+18,21.275124755859373,-1.916059255599976,2.1010303497314453,0.2506441473960876
2026-01-05 14:57:05.739,1.767625025763201e+18,21.315200927734374,-0.4120657444000244,1.477528095245361,0.0712968111038208
2026-01-05 14:57:05.772,1.767625025803295e+18,21.355294921875,0.6429243087768555,0.4506940841674804,-0.7510756254196167
2026-01-05 14:57:05.805,1.7676250258283459e+18,21.38034597216804,2.7739866566831046,-1.5752444363393887,-0.7510756254196167
2026-01-05 14:57:05.838,1.767625025853397e+18,21.405397216796878,2.7739866566831046,-2.256065868437733,-0.7510756254196167
2026-01-05 14:57:05.871,1.7676250258834534e+18,21.435453369140625,2.7739866566831046,-2.9203711000303696,0.4077814817428589
2026-01-05 14:57:05.904,1.7676250259235315e+18,21.475531494140625,1.849440097808838,-2.9203711000303696,0.6265302896499634
2026-01-05 14:57:05.937,1.7676250259636165e+18,21.515616455078124,-1.6915238499641418,-2.9203711000303696,0.6265302896499634
2026-01-05 14:57:05.970,1.767625025988661e+18,21.540660913599858,-1.6915238499641418,-2.9121156405240702,0.6265302896499634
2026-01-05 14:57:06.003,1.7676250260137057e+18,21.56570556640625,-2.350118956446635,-0.8050346374511718,1.271015167236328
2026-01-05 14:57:06.036,1.7676250260437635e+18,21.595763427734376,-2.286393165588379,-0.8050346374511718,0.6211347803473471
2026-01-05 14:57:06.069,1.767625026083835e+18,21.6358349609375,-1.6915238499641418,0.16613388061523449,0.6211347803473471
2026-01-05 14:57:06.102,1.7676250261238968e+18,21.675896728515625,-0.8997485637664795,0.6152181625366211,0.789402961730957
2026-01-05 14:57:06.135,1.7676250261639718e+18,21.715971923828125,-0.8997485637664795,0.6152181625366211,0.7940061092376709
2026-01-05 14:57:06.168,1.7676250261840072e+18,21.736007080078124,-0.8997485637664795,-0.0285806655883789,0.7940061092376709
2026-01-05 14:57:06.201,1.7676250262040594e+18,21.75605932617188,-0.8997485637664795,0.6152181625366211,0.7940061092376709
2026-01-05 14:57:06.234,1.7676250262441446e+18,21.79614453125,-0.9264078736305236,0.3467636108398437,0.789402961730957
2026-01-05 14:57:06.267,1.7676250262842286e+18,21.836228515625,-1.2615859508514404,0.3467636108398437,0.4610004425048828
2026-01-05 14:57:06.300,1.7676250263243098e+18,21.876309814453126,-1.2615859508514404,0.3467636108398437,-0.36575704150339894
2026-01-05 14:57:06.333,1.7676250263543665e+18,21.906366455078125,-0.9264078736305236,0.3467636108398437,-0.36575704150339894
2026-01-05 14:57:06.366,1.7676250263844314e+18,21.936431452064287,-0.7483116403880234,0.3321713758490682,-0.36575704150339894
2026-01-05 14:57:06.399,1.7676250264144963e+18,21.966496215820314,-0.19550824165344233,0.3156003952026367,-0.1585588753223419
2026-01-05 14:57:06.432,1.7676250264445798e+18,21.996579833984374,-0.133459210395813,0.013615608215332,-0.1585588753223419
2026-01-05 14:57:06.465,1.7676250264846838e+18,22.036683837890624,-0.0409451127052307,0.013615608215332,-0.1585588753223419
2026-01-05 14:57:06.498,1.7676250265147566e+18,22.06675646972656,0.32798445224761963,0.013615608215332,-0.6602829396724701
2026-01-05 14:57:06.531,1.7676250265448307e+18,22.09683081054688,0.6576896905899048,-0.01826000213623045,-0.6602829396724701
2026-01-05 14:57:06.564,1.7676250265648855e+18,22.11688549804688,0.6576896905899048,0.0934133529663086,-0.6602829396724701
2026-01-05 14:57:06.597,1.7676250266149862e+18,22.166986328125,0.8062243163585663,0.0934133529663086,-0.12449555844068519
2026-01-05 14:57:06.630,1.7676250266450706e+18,22.197070556640625,0.8062243163585663,-0.01826000213623045,-0.1116587296128273
2026-01-05 14:57:06.663,1.7676250266751534e+18,22.227153564453126,0.8062243163585663,-0.5348691940307617,-0.1116587296128273
2026-01-05 14:57:06.696,1.767625026725288e+18,22.277287841796877,1.627588391304016,-0.6875677108764648,-0.12449555844068519
2026-01-05 14:57:06.729,1.767625026745338e+18,22.297338134765624,1.627588391304016,-0.8382225036621094,-0.1321384757757187
2026-01-05 14:57:06.762,1.7676250267654003e+18,22.317400390625,1.8404479026794436,-0.9311294555664062,-0.8517632484436035
2026-01-05 14:57:06.795,1.7676250268155054e+18,22.367505371093753,1.8404479026794436,-0.8382225036621094,-0.8517632484436035
2026-01-05 14:57:06.828,1.7676250268455514e+18,22.39755126953125,1.5246610641479492,-0.8382225036621094,-0.8517632484436035
2026-01-05 14:57:06.861,1.767625026885641e+18,22.437640869140623,1.0436805486679077,-0.5878953933715821,1.0507649183273315
2026-01-05 14:57:06.894,1.767625026915703e+18,22.46770300292969,-0.49461364746093744,-0.5878953933715821,1.2382919639348984
2026-01-05 14:57:06.927,1.7676250269457677e+18,22.49776770019531,-1.2462106347084045,-0.5878953933715821,1.2382919639348984
2026-01-05 14:57:06.960,1.7676250269758323e+18,22.527832397460937,-1.9978076219558716,-1.1015968322753906,1.2382919639348984
2026-01-05 14:57:06.993,1.7676250270058952e+18,22.557895263671877,-1.9978076219558716,-1.1015968322753906,-0.5214481353759766
2026-01-05 14:57:07.026,1.76762502704598e+18,22.59797998046875,-2.02064311504364,-1.1015968322753906,-0.5214481353759766
2026-01-05 14:57:07.059,1.7676250270860713e+18,22.6380712890625,-2.086529016494751,-0.1365537643432617,-0.5214481353759766
2026-01-05 14:57:07.092,1.7676250271061263e+18,22.658126220703124,-2.086529016494751,0.0959963798522949,-0.35822346806526184
2026-01-05 14:57:07.125,1.767625027126181e+18,22.67818115234375,-2.086529016494751,0.3285465240478515,-0.1949988007545471
2026-01-05 14:57:07.158,1.7676250271662973e+18,22.71829736328125,-2.4437079429626465,0.5782499313354492,1.1497409343719482
2026-01-05 14:57:07.191,1.7676250272063903e+18,22.75839038085937,-2.4437079429626465,0.9609367847442627,1.1497409343719482
2026-01-05 14:57:07.224,1.7676250272464745e+18,22.798474609375,-2.4437079429626465,0.9609367847442627,1.1497409343719482
2026-01-05 14:57:07.257,1.7676250272765325e+18,22.82853259277344,-2.409135103225708,0.9609367847442627,0.370017260313034
2026-01-05 14:57:07.290,1.7676250273015795e+18,22.853579553726867,-1.8717647176734498,0.8273221668614826,0.370017260313034
2026-01-05 14:57:07.323,1.7676250273266268e+18,22.87862670898437,-1.3343901634216309,0.6937065124511719,0.370017260313034
2026-01-05 14:57:07.356,1.7676250273767624e+18,22.92876257324219,-0.42704975605010986,0.1606450080871582,0.370017260313034
2026-01-05 14:57:07.389,1.7676250274068577e+18,22.958857666015625,0.6747462749481201,-0.8205747604370117,0.370017260313034
2026-01-05 14:57:07.422,1.767625027446948e+18,22.99894799804688,0.6747462749481201,-0.8205747604370117,-1.1909736394882202
2026-01-05 14:57:07.455,1.7676250274870193e+18,23.039019287109376,0.6747462749481201,-0.8205747604370117,-1.1909736394882202
2026-01-05 14:57:07.488,1.7676250275070538e+18,23.0590537109375,0.041011095046997,1.2084012031555176,-1.1909736394882202
2026-01-05 14:57:07.521,1.767625027527094e+18,23.079093994140624,-0.2472205162048339,1.2207619664441662,1.9994059801101685
2026-01-05 14:57:07.554,1.7676250275671647e+18,23.11916455078125,-1.816997766494751,1.2331228256225586,1.9994059801101685
2026-01-05 14:57:07.587,1.7676250276072417e+18,23.15924169921875,-2.7269821166992188,1.2207619664441662,1.9994059801101685
2026-01-05 14:57:07.620,1.767625027647329e+18,23.1993291015625,-2.958848237991333,1.2207619664441662,-0.3269721865653991
2026-01-05 14:57:07.653,1.7676250276673725e+18,23.21937260291942,-2.958848237991333,0.3548434289045794,-0.7966595253297128
2026-01-05 14:57:07.686,1.7676250276874163e+18,23.239416259765623,-2.958848237991333,0.3548434289045794,-0.7966595253297128
2026-01-05 14:57:07.719,1.7676250277274964e+18,23.279496337890624,-2.274327039718628,-0.8979959487915039,-0.7966595253297128
2026-01-05 14:57:07.752,1.7676250277675773e+18,23.319577392578125,-2.20552921295166,-0.8979959487915039,-0.1078282296657562
2026-01-05 14:57:07.785,1.7676250278076475e+18,23.3596474609375,-1.313321232795715,-0.7306938171386719,-0.0975567102432251
2026-01-05 14:57:07.818,1.7676250278477279e+18,23.39972778320313,-1.1874538660049438,-0.37576394694924753,-0.0818976003518849
2026-01-05 14:57:07.851,1.7676250278677814e+18,23.419781327782996,-1.1874538660049438,-0.37576394694924753,-0.0975567102432251
2026-01-05 14:57:07.884,1.7676250278878346e+18,23.439834716796877,-1.1874538660049438,-0.0208368301391601,-0.0818976003518849
2026-01-05 14:57:07.917,1.7676250279379625e+18,23.48996264648438,-0.8582647787367412,0.0980119705200195,-0.0662386119365692
2026-01-05 14:57:07.950,1.7676250279680443e+18,23.520044189453124,-0.5290782451629639,0.0980119705200195,-0.04488381743431085
2026-01-05 14:57:07.983,1.767625028008151e+18,23.560151123046875,-0.0080550014972686,0.0980119705200195,-0.04488381743431085
2026-01-05 14:57:08.016,1.7676250280382203e+18,23.590220336914058,0.3319083899259567,-0.00891351699829095,-0.04488381743431085
2026-01-05 14:57:08.049,1.767625028068301e+18,23.62030108642578,0.6899284943938255,-0.00891351699829095,-0.364030659198761
2026-01-05 14:57:08.082,1.7676250280983818e+18,23.6503818359375,0.6899284943938255,-0.00891351699829095,-0.440637469291687
2026-01-05 14:57:08.115,1.767625028128466e+18,23.6804658203125,1.0479485988616943,-0.15498471260070795,-0.440637469291687
2026-01-05 14:57:08.148,1.7676250281685704e+18,23.7205703125,1.0479485988616943,-0.30105590820312494,-0.4474847435089804
2026-01-05 14:57:08.181,1.7676250282086723e+18,23.76067236328125,0.7653434369032708,-0.6275720596313477,-0.4474847435089804
2026-01-05 14:57:08.214,1.7676250282337242e+18,23.785724340334806,0.0667763948440551,-0.677636579152511,-0.4474847435089804
2026-01-05 14:57:08.247,1.767625028258776e+18,23.810776123046878,0.6166337728500366,-0.7277007102966309,-1.5222686529159546
2026-01-05 14:57:08.280,1.767625028288827e+18,23.840826904296875,0.6166337728500366,-0.8376016616821289,-1.858781337738037
2026-01-05 14:57:08.313,1.7676250283289021e+18,23.880902099609376,-0.023662865161895752,-0.8376016616821289,-1.858781337738037
2026-01-05 14:57:08.346,1.7676250283689969e+18,23.92099682617188,-0.43674738705158234,-0.8376016616821289,-1.5222686529159546
2026-01-05 14:57:08.379,1.7676250283990676e+18,23.951067626953122,-0.43674738705158234,0.1205406188964844,-0.6779169216752052
2026-01-05 14:57:08.412,1.7676250284241385e+18,23.976138427734373,-0.8109112158417702,0.1205406188964844,-0.6779169216752052
2026-01-05 14:57:08.445,1.7676250284492093e+18,24.001209228515624,-1.185075044631958,0.1205406188964844,-0.6779169216752052
2026-01-05 14:57:08.478,1.767625028489316e+18,24.04131616210937,-3.3187825679779053,-0.6582250595092773,-1.8651286363601685
2026-01-05 14:57:08.511,1.7676250285293947e+18,24.081394775390624,-3.4794580936431885,-0.6582250595092773,-3.0329949855804443
2026-01-05 14:57:08.544,1.767625028569491e+18,24.121490966796877,-3.641111135482788,-0.8105482958753368,-3.0329949855804443
2026-01-05 14:57:08.577,1.7676250285995663e+18,24.151566284179687,-4.225494384765625,-0.8105482958753368,-3.0329949855804443
2026-01-05 14:57:08.610,1.7676250286246362e+18,24.176636194262855,-4.634450843238733,-0.8105482958753368,-2.838422820545455
2026-01-05 14:57:08.643,1.7676250286497062e+18,24.201706298828125,-4.634450843238733,-0.8105482958753368,-1.9354689121246336
2026-01-05 14:57:08.676,1.7676250286897984e+18,24.24179833984375,-4.634450843238733,-0.8105482958753368,-1.6071224212646484
2026-01-05 14:57:08.709,1.7676250287298847e+18,24.281884765625,-3.561641216278076,-0.9974355697631836,-0.7408745288848877
2026-01-05 14:57:08.742,1.7676250287699587e+18,24.321958740234376,-3.324666976928711,-1.0421805381774902,-0.2808468639850616
2026-01-05 14:57:08.775,1.7676250287900099e+18,24.342009765625,-3.1181936264038086,-1.0421805381774902,-0.25167088955640793
2026-01-05 14:57:08.808,1.7676250288100608e+18,24.362060791015622,-2.9117202758789062,-1.0421805381774902,0.2375327497720718
2026-01-05 14:57:08.841,1.7676250288501765e+18,24.40217651367188,-2.3866186141967773,-1.0421805381774902,0.2375327497720718
2026-01-05 14:57:08.874,1.767625028890284e+18,24.442283935546875,-1.8546876907348635,1.0782878398895264,0.2375327497720718
2026-01-05 14:57:08.907,1.7676250289203546e+18,24.47235461425781,-1.807228803634644,1.0782878398895264,-0.12601137161254883
2026-01-05 14:57:08.940,1.767625028960447e+18,24.512446899414062,-1.5272213220596313,1.0782878398895264,-3.374213933944702
2026-01-05 14:57:08.973,1.767625028990507e+18,24.542506780376527,-0.8468091653636264,0.13443418870227453,-3.374213933944702
2026-01-05 14:57:09.006,1.767625029020567e+18,24.57256689453125,-0.16639173030853271,0.13443418870227453,-3.374213933944702
2026-01-05 14:57:09.039,1.7676250290606756e+18,24.612675537109375,-0.16639173030853271,0.13443418870227453,-2.0303333401679993
2026-01-05 14:57:09.072,1.7676250290907343e+18,24.642734375,-0.16639173030853271,-0.3218007087707519,-1.004054307937622
2026-01-05 14:57:09.105,1.7676250291308303e+18,24.682830322265627,0.1239397525787354,-0.3218007087707519,0.2200438678264618
2026-01-05 14:57:09.138,1.7676250291709117e+18,24.722911865234376,0.235065221786499,-0.6226301193237305,0.5362868309020996
2026-01-05 14:57:09.171,1.767625029190953e+18,24.74295308066486,-0.4334020614624023,-0.6226301193237305,0.5362868309020996
2026-01-05 14:57:09.204,1.7676250292109942e+18,24.762994140625,-0.4334020614624023,-0.6226301193237305,0.5362868309020996
2026-01-05 14:57:09.237,1.7676250292510697e+18,24.803069580078127,-1.2960477471351624,-0.6226301193237305,0.3379740715026855
2026-01-05 14:57:09.270,1.767625029291139e+18,24.84313916015625,-1.3728510439395905,-0.4601209163665771,-1.120301365852356
2026-01-05 14:57:09.303,1.7676250293211976e+18,24.873197387695313,-1.4496543407440186,-0.1512317657470703,-1.120301365852356
2026-01-05 14:57:09.336,1.7676250293462492e+18,24.898248962402345,-1.3728510439395905,-0.0462760925292968,-1.1263759136199951
2026-01-05 14:57:09.369,1.7676250293713006e+18,24.923300537109377,-1.2960477471351624,-0.0462760925292968,-1.492822378873825
2026-01-05 14:57:09.402,1.767625029421414e+18,24.973413818359372,-1.2270551323890686,-0.0323801040649414,-1.2215055227279663
2026-01-05 14:57:09.435,1.767625029451495e+18,25.00349487304688,-1.125152587890625,0.0603227615356445,-1.1776094436645508
2026-01-05 14:57:09.468,1.767625029491571e+18,25.04357104492188,-0.916822910308838,0.0603227615356445,-1.1776094436645508
2026-01-05 14:57:09.501,1.7676250295316864e+18,25.083686279296877,-0.3325193226337433,0.0579080581665039,-1.1776094436645508
2026-01-05 14:57:09.534,1.767625029551739e+18,25.10373876953125,-0.3325193226337433,0.0579080581665039,-1.01329505443573
2026-01-05 14:57:09.567,1.7676250295718715e+18,25.12387158203125,-0.3325193226337433,0.0415220260620117,-0.7799027562141418
2026-01-05 14:57:09.600,1.7676250296119764e+18,25.1639765625,-0.1382344663143158,0.0106105804443359,-0.7799027562141418
2026-01-05 14:57:09.633,1.767625029652085e+18,25.2040849609375,-0.0352989733219146,0.0106105804443359,-0.6968913078308105
2026-01-05 14:57:09.666,1.7676250296921915e+18,25.24419140625,0.129490852355957,0.0106105804443359,-0.6968913078308105
2026-01-05 14:57:09.699,1.767625029712243e+18,25.26424291992188,0.3511614799499511,-0.0572819709777832,-0.6968913078308105
2026-01-05 14:57:09.732,1.7676250297322819e+18,25.28428173828125,0.6879106163978577,-0.2565269470214844,-0.6968913078308105
2026-01-05 14:57:09.765,1.7676250297824123e+18,25.334412353515628,0.8597861528396606,-0.3814888000488281,-0.6968913078308105
2026-01-05 14:57:09.798,1.7676250298125023e+18,25.364502197265622,0.8597861528396606,-0.673151969909668,-0.8338751792907715
2026-01-05 14:57:09.831,1.767625029852617e+18,25.404616943359372,0.8762749433517456,-0.8766136169433594,-1.484750270843506
2026-01-05 14:57:09.864,1.7676250298927206e+18,25.444720703125,0.9609315395355225,-2.6761703491210938,-2.6230568885803223
2026-01-05 14:57:09.897,1.767625029912764e+18,25.464763916015627,1.2218858003616333,-2.6761703491210938,-2.6230568885803223
2026-01-05 14:57:09.930,1.7676250299328072e+18,25.48480712890625,1.1605629920959473,-2.6761703491210938,-2.6230568885803223
2026-01-05 14:57:09.963,1.7676250299728852e+18,25.52488525390625,1.1605629920959473,-1.213907241821289,-2.134913444519043
2026-01-05 14:57:09.996,1.767625030012988e+18,25.56498779296875,1.1605629920959473,-0.8004875183105469,-1.1879448890686035
2026-01-05 14:57:10.029,1.7676250300430648e+18,25.59506494140625,0.18500146269798284,-0.8004875183105469,-1.1879448890686035
2026-01-05 14:57:10.062,1.7676250300932063e+18,25.645206298828125,-2.355973958969116,-0.8004875183105469,-1.1879448890686035
2026-01-05 14:57:10.095,1.767625030118264e+18,25.67026409912109,-2.5070834159851074,-1.3889245986938477,-1.4072447717189789
2026-01-05 14:57:10.128,1.7676250301433219e+18,25.69532189941406,-2.5070834159851074,-1.3889245986938477,-1.5649744272232056
2026-01-05 14:57:10.161,1.767625030173404e+18,25.72540380859375,-2.583242356777191,-1.3889245986938477,-1.5649744272232056
2026-01-05 14:57:10.194,1.7676250302134876e+18,25.765487548828126,-2.668407440185547,-0.9856357574462892,-1.5649744272232056
2026-01-05 14:57:10.227,1.7676250302536003e+18,25.805600341796875,-2.668407440185547,-0.8544626235961914,-0.3877639472484588
2026-01-05 14:57:10.260,1.7676250302736604e+18,25.825660644531247,-2.763077735900879,-0.30675220489501964,0.2558813244104386
2026-01-05 14:57:10.293,1.7676250302937208e+18,25.845720947265622,-2.815001964569092,0.37213134765625,0.8995265960693359
2026-01-05 14:57:10.326,1.7676250303338365e+18,25.88583642578125,-2.815001964569092,0.840550422668457,1.5584622621536257
2026-01-05 14:57:10.359,1.7676250303739546e+18,25.92595458984375,-2.815001964569092,0.8812808990478516,1.5584622621536257
2026-01-05 14:57:10.392,1.7676250304140736e+18,25.966073486328124,-2.673895359039306,1.4782795218386973,1.5584622621536257
2026-01-05 14:57:10.425,1.7676250304541537e+18,26.00615380859375,-2.2449045181274414,1.4782795218386973,1.2064014673233032
2026-01-05 14:57:10.458,1.767625030479208e+18,26.031207910632766,-1.711113794841681,1.4782795218386973,1.0110354252768183
2026-01-05 14:57:10.491,1.7676250305042621e+18,26.05626220703125,-1.1773189306259155,1.3423397541046143,0.8156678676605225
2026-01-05 14:57:10.524,1.7676250305343388e+18,26.0863388671875,-0.1069779396057128,0.46924593885566557,0.3525494039058685
2026-01-05 14:57:10.557,1.767625030574433e+18,26.12643310546875,0.8878991603851318,0.46924593885566557,-0.6211652755737305
2026-01-05 14:57:10.590,1.7676250306145137e+18,26.166513671875,0.8878991603851318,0.4289693832397461,-0.6211652755737305
2026-01-05 14:57:10.623,1.7676250306545964e+18,26.206596435546874,0.8878991603851318,-0.48433756828308105,-0.6211652755737305
2026-01-05 14:57:10.656,1.7676250306746324e+18,26.22663256835937,0.4977719783782959,-0.48433756828308105,-0.3028903603553772
2026-01-05 14:57:10.689,1.7676250307046866e+18,26.256686645507813,-0.7955661416053772,-0.48433756828308105,1.9168384671211243
2026-01-05 14:57:10.722,1.7676250307447736e+18,26.296773681640623,-1.0149497985839844,-0.48433756828308105,1.9168384671211243
2026-01-05 14:57:10.755,1.7676250307748488e+18,26.326848876953125,-1.96834659576416,1.1069726943969729,1.9168384671211243
2026-01-05 14:57:10.788,1.7676250308049096e+18,26.35690954589844,-2.3291382789611816,1.1069726943969729,0.9464544653892517
2026-01-05 14:57:10.821,1.767625030834971e+18,26.386970947265624,-2.3291382789611816,1.1069726943969729,-0.098427340388298
2026-01-05 14:57:10.854,1.7676250308650414e+18,26.417041259765625,-2.3291382789611816,1.1825146675109863,-0.098427340388298
2026-01-05 14:57:10.887,1.767625030895105e+18,26.44710498046875,-1.8443899154663088,-0.7596588134765625,-0.098427340388298
2026-01-05 14:57:10.920,1.7676250309351836e+18,26.48718359375,-1.3065502643585205,-0.7596588134765625,-0.5151964426040649
2026-01-05 14:57:10.953,1.767625030975264e+18,26.527263916015624,-1.2469944953918457,0.2474222183227539,-0.3802217672192294
2026-01-05 14:57:10.986,1.7676250310153554e+18,26.56735546875,-1.2469944953918457,0.5143848283625085,-0.2452481389045715
2026-01-05 14:57:11.019,1.7676250310354107e+18,26.58741084439166,-1.3065502643585205,0.2474222183227539,-0.2452481389045715
2026-01-05 14:57:11.052,1.767625031055466e+18,26.607466064453124,-1.1654338070758803,0.2474222183227539,-0.2452481389045715
2026-01-05 14:57:11.085,1.7676250310955625e+18,26.6475625,-1.1654338070758803,0.2395706176757812,0.1444724649190902
2026-01-05 14:57:11.118,1.7676250311356554e+18,26.68765551757813,0.0089005231857299,0.1777706146240234,0.2505266666412353
2026-01-05 14:57:11.151,1.7676250311757294e+18,26.7277294921875,0.0709679126739502,0.1049509048461914,0.2505266666412353
2026-01-05 14:57:11.184,1.7676250312158305e+18,26.76783056640625,0.5133534073829651,-0.0306711196899414,0.2505266666412353
2026-01-05 14:57:11.217,1.7676250312358774e+18,26.78787744140625,0.8895925879478455,-0.2739906311035156,-0.3297691345214844
2026-01-05 14:57:11.250,1.7676250312559396e+18,26.807939697265624,0.9124263525009156,-0.2739906311035156,-0.8004024624824524
2026-01-05 14:57:11.283,1.76762503129605e+18,26.8480498046875,1.006134957075119,-0.4898977279663086,-0.8004024624824524
2026-01-05 14:57:11.316,1.767625031326125e+18,26.878124877929686,1.039769172668457,-0.5001440048217773,-0.8004024624824524
2026-01-05 14:57:11.349,1.7676250313762598e+18,26.928259765625,1.0479437112808228,-0.5001440048217773,-0.6531938314437866
2026-01-05 14:57:11.382,1.7676250313963128e+18,26.948312744140622,1.0479437112808228,-0.533238410949707,-0.6531938314437866
2026-01-05 14:57:11.415,1.7676250314163474e+18,26.96834741210937,1.279942274093628,-0.6852350234985352,-0.6531938314437866
2026-01-05 14:57:11.448,1.7676250314564516e+18,27.00845166015625,1.6209943890571594,-0.993865966796875,-0.6531938314437866
2026-01-05 14:57:11.481,1.7676250314965422e+18,27.048542236328124,1.6209943890571594,-0.993865966796875,-0.6531938314437866
2026-01-05 14:57:11.514,1.7676250315266145e+18,27.078614501953126,1.279942274093628,-0.993865966796875,-0.08888110518455505
2026-01-05 14:57:11.547,1.7676250315767304e+18,27.12873046875,-0.7356348037719727,-0.993865966796875,-4.5446695678130755e-05
2026-01-05 14:57:11.580,1.7676250315967757e+18,27.14877575683594,-1.5671718120574951,-0.993865966796875,0.08878952264785767
2026-01-05 14:57:11.613,1.767625031616821e+18,27.168821044921877,-2.3639354705810547,-1.0799694061279297,0.17762449199139346
2026-01-05 14:57:11.646,1.7676250316569052e+18,27.2089052734375,-2.3987088203430176,-1.0799694061279297,0.220016062259674
2026-01-05 14:57:11.679,1.7676250316969866e+18,27.248986572265625,-2.3987088203430176,-1.0799694061279297,0.2664601504802704
2026-01-05 14:57:11.712,1.7676250317270584e+18,27.27905834960937,-2.613616065723619,-0.3592829704284668,0.7093713879585266
2026-01-05 14:57:11.745,1.7676250317771773e+18,27.32917724609375,-2.613616065723619,0.5311269760131836,1.6497189402580261
2026-01-05 14:57:11.778,1.7676250317972224e+18,27.349222456428418,-2.6387306451797485,0.9209019324328527,1.855606192846598
2026-01-05 14:57:11.811,1.7676250318172677e+18,27.369267822265623,-2.8706166744232178,1.310679912567139,1.855606192846598
2026-01-05 14:57:11.844,1.767625031857357e+18,27.40935717773437,-2.8706166744232178,1.4523587226867676,1.855606192846598
2026-01-05 14:57:11.877,1.7676250318974228e+18,27.4494228515625,-2.8706166744232178,1.4523587226867676,1.5052592754364014
2026-01-05 14:57:11.910,1.7676250319274747e+18,27.479474609375,-2.8066436052322388,1.4523587226867676,-0.4381459355354309
2026-01-05 14:57:11.943,1.7676250319575342e+18,27.5095341796875,-1.1543233394622805,0.8578381538391113,-0.4878621399402618
2026-01-05 14:57:11.976,1.7676250319775928e+18,27.5295927734375,0.1468534469604492,0.6744747161865234,-0.5235313773155212
2026-01-05 14:57:12.009,1.7676250320176847e+18,27.56968481445313,0.9128141403198242,-0.1578731536865234,-0.5235313773155212
2026-01-05 14:57:12.042,1.7676250320577907e+18,27.609790771484374,1.534250259399414,-0.1578731536865234,-0.4878621399402618
2026-01-05 14:57:12.075,1.7676250320978793e+18,27.64987939453125,1.534250259399414,-0.1578731536865234,1.3168816566467283
2026-01-05 14:57:12.108,1.7676250321379497e+18,27.68994970703125,1.534250259399414,-0.6056861877441406,1.5629452466964722
2026-01-05 14:57:12.141,1.767625032157992e+18,27.709991865619944,0.20444253312075777,0.3800952434539796,2.0247020721435547
2026-01-05 14:57:12.174,1.7676250321780342e+18,27.7300341796875,-1.125375509262085,0.7135845334165338,2.3370657927466176
2026-01-05 14:57:12.207,1.7676250322181245e+18,27.77012451171875,-1.4853641986846924,0.3800952434539796,2.3370657927466176
2026-01-05 14:57:12.240,1.767625032258214e+18,27.8102138671875,-2.11428451538086,0.22336363792419434,2.0247020721435547
2026-01-05 14:57:12.273,1.7676250322882816e+18,27.840281616210937,-2.22993803024292,0.22336363792419434,1.2597485780715942
2026-01-05 14:57:12.306,1.7676250323383997e+18,27.89039965820313,-2.3469390869140625,-0.9191493988037108,-0.11228609085083
2026-01-05 14:57:12.339,1.7676250323584387e+18,27.910438720703127,-2.3469390869140625,-0.9191493988037108,-0.11228609085083
2026-01-05 14:57:12.372,1.7676250323784704e+18,27.930470458984374,-2.3469390869140625,-0.9191493988037108,-0.11228609085083
2026-01-05 14:57:12.405,1.7676250324185475e+18,27.97054736328125,-2.281690835952759,-0.23138952255249018,1.9599521160125728
2026-01-05 14:57:12.438,1.7676250324486182e+18,28.000618286132813,-1.8559626340866089,0.33463382720947266,1.9599521160125728
2026-01-05 14:57:12.471,1.7676250324987302e+18,28.05073022460937,-1.6612020134925842,0.33463382720947266,1.9599521160125728
2026-01-05 14:57:12.504,1.7676250325187768e+18,28.07077685546875,-1.6612020134925842,0.0333585739135742,1.1560903191566465
2026-01-05 14:57:12.537,1.7676250325388234e+18,28.090823486328127,-1.0407131910324097,0.0333585739135742,0.3522285223007202
2026-01-05 14:57:12.570,1.767625032578923e+18,28.130923095703125,-0.8094378113746643,0.0161962509155273,0.3522285223007202
2026-01-05 14:57:12.603,1.7676250326190083e+18,28.17100830078125,-0.4379743337631225,0.0161962509155273,0.3522285223007202
2026-01-05 14:57:12.636,1.767625032659112e+18,28.21111181640625,0.5959516763687134,0.0161962509155273,0.17324414659714343
2026-01-05 14:57:12.669,1.7676250326891873e+18,28.241187377929688,0.645111083984375,0.0161962509155273,0.17324414659714343
2026-01-05 14:57:12.702,1.767625032714256e+18,28.26625589557474,0.647587875197941,0.0161962509155273,0.17324414659714343
2026-01-05 14:57:12.735,1.7676250327393242e+18,28.29132421875,0.6500646471977234,-0.0200071334838867,-0.1691557168960571
2026-01-05 14:57:12.768,1.7676250327794268e+18,28.3314267578125,1.1266335248947144,-0.036600112915039,-0.642454981803894
2026-01-05 14:57:12.801,1.7676250328195215e+18,28.371521484375,1.1455328464508057,-0.09424543380737305,-0.642454981803894
2026-01-05 14:57:12.834,1.7676250328495885e+18,28.401588378906247,1.1779643297195437,-0.3010845184326172,-0.642454981803894
2026-01-05 14:57:12.867,1.767625032899721e+18,28.451720947265624,1.1779643297195437,-0.5054502487182617,-0.642454981803894
2026-01-05 14:57:12.900,1.76762503291978e+18,28.471780029296877,1.1779643297195437,-1.2522006034851074,-0.642454981803894
2026-01-05 14:57:12.933,1.7676250329398392e+18,28.49183911132813,1.482943415641785,-1.998950958251953,-0.4573913812637329
2026-01-05 14:57:12.966,1.7676250329799145e+18,28.53191455078125,1.482943415641785,-1.998950958251953,-0.4573913812637329
2026-01-05 14:57:12.999,1.7676250330199946e+18,28.57199462890625,1.1984632015228271,-1.998950958251953,1.847754716873169
2026-01-05 14:57:13.032,1.7676250330600735e+18,28.612073486328125,1.081749677658081,-0.6167469024658203,1.9200096964233861
2026-01-05 14:57:13.065,1.7676250330851156e+18,28.637115600585936,-0.22579798102378845,-0.6167469024658203,1.9922646759736033
2026-01-05 14:57:13.098,1.7676250331101578e+18,28.66215771484375,-1.6500591635704043,-0.6167469024658203,1.9922646759736033
2026-01-05 14:57:13.131,1.767625033150233e+18,28.702232910156248,-1.6856298446655271,-0.3632359504699707,1.9922646759736033
2026-01-05 14:57:13.164,1.767625033180293e+18,28.732293212890625,-1.8883541822433472,-0.1097249984741211,0.518064558506012
2026-01-05 14:57:13.197,1.7676250332203812e+18,28.772381103515624,-1.9007117748260498,0.21916055679321286,0.3017283678054809
2026-01-05 14:57:13.230,1.7676250332604813e+18,28.812481201171877,-1.9007117748260498,0.21916055679321286,0.2456552386283874
2026-01-05 14:57:13.263,1.767625033280531e+18,28.83253088378906,-1.9130693674087524,0.3808393478393554,0.2456552386283874
2026-01-05 14:57:13.296,1.7676250333005806e+18,28.85258056640625,-1.9130693674087524,0.3808393478393554,0.2456552386283874
2026-01-05 14:57:13.329,1.7676250333406636e+18,28.89266357421875,-2.295809745788574,2.138347625732422,2.074546337127685
2026-01-05 14:57:13.362,1.7676250333807447e+18,28.93274462890625,-2.295809745788574,2.138347625732422,2.074546337127685
2026-01-05 14:57:13.395,1.767625033420828e+18,28.972827880859374,-2.295809745788574,2.138347625732422,2.074546337127685
2026-01-05 14:57:13.428,1.7676250334609055e+18,29.01290551757813,-0.5891556739807129,1.936805248260498,0.65001380443573
2026-01-05 14:57:13.461,1.767625033480952e+18,29.032952192750862,0.6791122834068684,0.9210594952135835,0.33320232531606686
2026-01-05 14:57:13.494,1.767625033500999e+18,29.0529990234375,1.947390079498291,-0.0946941375732421,0.0163933038711547
2026-01-05 14:57:13.527,1.7676250335410808e+18,29.09308081054688,1.947390079498291,-0.0946941375732421,0.33320232531606686
2026-01-05 14:57:13.560,1.767625033581149e+18,29.13314892578125,1.947390079498291,-1.3365020751953125,0.65001380443573
2026-01-05 14:57:13.593,1.7676250336212216e+18,29.1732216796875,0.9129471778869628,-1.3365020751953125,1.605520453539475
2026-01-05 14:57:13.626,1.7676250336412654e+18,29.193265303114263,-1.233634967227784,-0.40109239519543083,1.605520453539475
2026-01-05 14:57:13.659,1.7676250336613092e+18,29.21330908203125,-3.2304537296295166,1.4877538681030271,1.605520453539475
2026-01-05 14:57:13.692,1.7676250337013862e+18,29.25338623046875,-3.3378167152404785,1.1549434661865234,1.223842740058899
2026-01-05 14:57:13.725,1.7676250337414574e+18,29.29345751953125,-3.3378167152404785,1.1549434661865234,1.155079571890227
2026-01-05 14:57:13.758,1.767625033781532e+18,29.333531982421874,-3.2304537296295166,1.1549434661865234,1.0863158702850342
2026-01-05 14:57:13.791,1.7676250338216067e+18,29.373606689453126,-2.3635847568511963,0.6190261840820312,1.0863158702850342
2026-01-05 14:57:13.824,1.7676250338466596e+18,29.398659729003906,-1.6259304583072662,-0.2398815155029297,1.0863158702850342
2026-01-05 14:57:13.857,1.7676250338717128e+18,29.423712768554687,-1.2447199821472168,-0.28963375091552734,1.6564674973487854
2026-01-05 14:57:13.890,1.7676250339017846e+18,29.45378466796875,-0.8882761597633362,-0.2398815155029297,1.6564674973487854
2026-01-05 14:57:13.923,1.7676250339418844e+18,29.49388452148437,-0.7088398933410645,0.0973024368286132,1.6564674973487854
2026-01-05 14:57:13.956,1.7676250339819945e+18,29.533994384765624,-0.7088398933410645,0.0973024368286132,0.2251027822494506
2026-01-05 14:57:13.989,1.7676250340020419e+18,29.554041792357395,-0.5165215533876512,0.1191120147705078,-0.0002434253692626
2026-01-05 14:57:14.022,1.7676250340220895e+18,29.57408935546875,-0.5116187930107117,0.1783084869384765,-0.0002434253692626
2026-01-05 14:57:14.055,1.7676250340621663e+18,29.614166259765625,-0.5116187930107117,0.1783084869384765,-0.0002434253692626
2026-01-05 14:57:14.088,1.7676250341022758e+18,29.65427587890625,0.8011032938957214,0.1191120147705078,0.1836974024772644
2026-01-05 14:57:14.121,1.7676250341323502e+18,29.684350219726564,0.970209389925003,-0.0032453536987305034,0.1836974024772644
2026-01-05 14:57:14.154,1.7676250341824847e+18,29.734484619140623,1.678846836090088,-0.0032453536987305034,0.1836974024772644
2026-01-05 14:57:14.187,1.7676250342025306e+18,29.754530517578125,1.678846836090088,-0.3490962982177734,-0.6118627190589905
2026-01-05 14:57:14.220,1.767625034222591e+18,29.774591064453126,1.678846836090088,-0.4349689483642578,-0.6118627190589905
2026-01-05 14:57:14.253,1.7676250342626898e+18,29.814689697265624,1.5218999981880188,-0.4500341415405273,-0.6118627190589905
2026-01-05 14:57:14.286,1.7676250343027656e+18,29.854765625,1.383535921573639,-0.9791374206542968,-1.1613740921020508
2026-01-05 14:57:14.319,1.7676250343328374e+18,29.884837158203126,1.383535921573639,-1.3385300636291504,-1.1613740921020508
2026-01-05 14:57:14.352,1.7676250343729295e+18,29.924929443359375,1.5218999981880188,-2.338587760925293,-0.7854861617088318
2026-01-05 14:57:14.385,1.7676250343979794e+18,29.949979370117187,1.5218999981880188,-2.338587760925293,-0.7854861617088318
2026-01-05 14:57:14.418,1.7676250344230292e+18,29.975029296875,1.383535921573639,-2.338587760925293,-0.7854861617088318
2026-01-05 14:57:14.451,1.7676250344631217e+18,30.01512158203125,1.2113564014434814,-0.6760358810424805,0.899682879447937
2026-01-05 14:57:14.484,1.7676250345032084e+18,30.05520849609375,0.2724485993385315,-0.6760358810424805,0.899682879447937
2026-01-05 14:57:14.517,1.767625034543272e+18,30.09527197265625,-2.409521102905273,-0.6760358810424805,0.899682879447937
2026-01-05 14:57:14.550,1.76762503456331e+18,30.115310014246297,-2.409521102905273,-0.7261533737182617,0.2849636374245271
2026-01-05 14:57:14.583,1.767625034583348e+18,30.135347900390624,-2.424033164978028,-0.7261533737182617,0.2839244604110718
2026-01-05 14:57:14.616,1.767625034623425e+18,30.175425048828124,-2.426726818084717,-0.7261533737182617,0.276120126247406
2026-01-05 14:57:14.649,1.7676250346635034e+18,30.21550341796875,-2.426726818084717,-0.2091751098632812,0.276120126247406
2026-01-05 14:57:14.682,1.7676250347036006e+18,30.2556005859375,-2.426726818084717,0.0672206878662109,0.2839244604110718
2026-01-05 14:57:14.715,1.7676250347436992e+18,30.29569921875,-2.9935832023620605,0.5841503143310547,1.0206736326217651
2026-01-05 14:57:14.748,1.7676250347637376e+18,30.315737792968747,-2.9935832023620605,0.8782694339752197,1.5829889178276062
2026-01-05 14:57:14.781,1.7676250347837763e+18,30.3357763671875,-2.9935832023620605,1.1723885536193848,1.5829889178276062
2026-01-05 14:57:14.814,1.7676250348338652e+18,30.38586535644531,-2.4950696229934692,1.3223276138305664,1.5829889178276062
2026-01-05 14:57:14.847,1.7676250348639247e+18,30.4159248046875,-1.910984992980957,1.3223276138305664,0.8429942727088928
2026-01-05 14:57:14.880,1.7676250349039939e+18,30.455993896484376,-0.8759386539459229,1.3223276138305664,0.437423825263977
2026-01-05 14:57:14.913,1.7676250349440755e+18,30.49607543945313,0.4809672832489013,0.007486343383789,-0.0416148900985717
2026-01-05 14:57:14.946,1.767625034964121e+18,30.516121138067152,1.541267991065979,-1.3894489463504338,-0.14173172324050726
2026-01-05 14:57:14.979,1.767625034984167e+18,30.5361669921875,1.541267991065979,-1.3894489463504338,-0.2418493330478668
2026-01-05 14:57:15.012,1.7676250350342508e+18,30.586250854492185,1.541267991065979,-1.3894489463504338,-0.2418493330478668
2026-01-05 14:57:15.045,1.7676250350643116e+18,30.6163115234375,0.5246727466583252,-1.466536521911621,-0.2418493330478668
2026-01-05 14:57:15.078,1.7676250350943698e+18,30.646369873046872,-1.3859877586364746,0.3377064817062623,0.3469946980476379
2026-01-05 14:57:15.111,1.767625035119419e+18,30.671418945312496,-2.1700862646102905,0.3377064817062623,0.9900953471660614
2026-01-05 14:57:15.144,1.767625035144468e+18,30.696468017578123,-2.9541847705841064,-0.8448863029479978,0.9900953471660614
2026-01-05 14:57:15.177,1.7676250351845478e+18,30.7365478515625,-2.9541847705841064,-1.466536521911621,0.3469946980476379
2026-01-05 14:57:15.210,1.7676250352246223e+18,30.776622314453125,-2.9541847705841064,-0.8448863029479978,0.3469946980476379
2026-01-05 14:57:15.243,1.7676250352646838e+18,30.816683837890626,-2.73911452293396,-0.8448863029479978,1.5777816965211438
2026-01-05 14:57:15.276,1.7676250353047532e+18,30.856753173828125,-2.6367096104645396,-0.1855344772338867,1.1579056978225708
2026-01-05 14:57:15.309,1.7676250353247954e+18,30.876795332416815,-2.534303903579712,-0.1855344772338867,1.1579056978225708
2026-01-05 14:57:15.342,1.7676250353448376e+18,30.89683764648437,-2.534303903579712,0.9866926838484926,1.1579056978225708
2026-01-05 14:57:15.375,1.7676250353849213e+18,30.93692138671875,-1.4611361026763916,-0.026376724243164,-0.350438117980957
2026-01-05 14:57:15.408,1.767625035425028e+18,30.97702807617188,-0.705460786819458,-0.026376724243164,-0.350438117980957
2026-01-05 14:57:15.441,1.767625035465121e+18,31.01712109375,-0.5017414093017578,0.051034481952953153,-0.350438117980957
2026-01-05 14:57:15.474,1.7676250355051973e+18,31.057197265625,-0.5017414093017578,0.051034481952953153,-0.350438117980957
2026-01-05 14:57:15.507,1.767625035525245e+18,31.077244828736355,-0.21335516012462197,0.051034481952953153,-0.5333937853574753
2026-01-05 14:57:15.540,1.7676250355452923e+18,31.097292236328126,0.17125189304351804,0.051034481952953153,-0.3184022307395935
2026-01-05 14:57:15.573,1.7676250355954028e+18,31.147402709960936,0.17125189304351804,0.051034481952953153,-0.3184022307395935
2026-01-05 14:57:15.606,1.7676250356254802e+18,31.177480224609376,0.4357612133026123,-0.1867332458496093,-0.3184022307395935
2026-01-05 14:57:15.639,1.7676250356655918e+18,31.217591796875,0.5773292183876038,-0.30517196655273443,-0.127658411860466
2026-01-05 14:57:15.672,1.7676250356856445e+18,31.237644531249998,0.7606076002120972,-0.4361333847045898,-0.127658411860466
2026-01-05 14:57:15.705,1.7676250357056973e+18,31.257697265625,0.7606076002120972,-0.8686199188232422,-0.127658411860466
2026-01-05 14:57:15.738,1.7676250357457836e+18,31.297783447265623,0.7606076002120972,-1.1208524703979492,-0.462130606174469
2026-01-05 14:57:15.771,1.7676250357858772e+18,31.337877197265627,0.6668831110000609,-1.2136831283569336,-0.462130606174469
2026-01-05 14:57:15.804,1.7676250358159457e+18,31.36794567871094,0.5797950029373169,-1.2136831283569336,-0.462130606174469
2026-01-05 14:57:15.837,1.7676250358660562e+18,31.41805615234375,0.2978026508915757,-1.2136831283569336,-0.0210600197315216
2026-01-05 14:57:15.870,1.7676250358911145e+18,31.443114477078172,0.2978026508915757,-0.018974200156673726,-0.0210600197315216
2026-01-05 14:57:15.903,1.7676250359161728e+18,31.468172607421877,0.01581248641014095,-0.018974200156673726,-0.0210600197315216
2026-01-05 14:57:15.936,1.7676250359462515e+18,31.49825146484375,-1.74065899848938,-0.018974200156673726,-0.951075553894043
2026-01-05 14:57:15.969,1.7676250359863212e+18,31.53832104492188,-2.7314348220825195,-1.0561561584472656,-1.1180958151817322
2026-01-05 14:57:16.002,1.7676250360264023e+18,31.57840234375,-2.7819631695747375,-1.0561561584472656,-1.1180958151817322
2026-01-05 14:57:16.035,1.7676250360564882e+18,31.608488159179686,-2.7819631695747375,-1.0561561584472656,-1.1180958151817322
2026-01-05 14:57:16.068,1.767625036081556e+18,31.63355596923828,-2.8823742866516118,-0.8564271926879883,-0.999310702085495
2026-01-05 14:57:16.101,1.7676250361066237e+18,31.658623779296875,-2.8823742866516118,-0.6566982269287109,-0.8805255889892578
2026-01-05 14:57:16.134,1.7676250361467208e+18,31.698720703125,-2.8823742866516118,-0.1215362548828125,-0.5660337209701538
2026-01-05 14:57:16.167,1.7676250361868145e+18,31.738814453125,-3.1650593280792236,0.8221359252929688,0.6417711973190308
2026-01-05 14:57:16.200,1.7676250362268854e+18,31.77888549804688,-3.1650593280792236,0.9410762786865234,1.112221598625183
2026-01-05 14:57:16.233,1.7676250362469327e+18,31.798932739257815,-3.1650593280792236,1.1605134010314941,1.2347696423530579
2026-01-05 14:57:16.266,1.76762503626698e+18,31.81897998046875,-2.9531164169311523,1.393263339996338,1.2347696423530579
2026-01-05 14:57:16.299,1.7676250363070543e+18,31.859054443359376,-2.3730854988098145,1.393263339996338,1.2347696423530579
2026-01-05 14:57:16.332,1.7676250363471214e+18,31.899121337890627,-1.611414909362793,1.393263339996338,0.789876401424408
2026-01-05 14:57:16.365,1.767625036387208e+18,31.9392080078125,0.2073159217834472,0.1980762481689453,0.258237361907959
2026-01-05 14:57:16.398,1.7676250364172746e+18,31.969274658203126,1.5431289672851562,-1.4313535690307617,-0.9050987213850021
2026-01-05 14:57:16.431,1.767625036442322e+18,31.994321899414064,1.5431289672851562,-1.4313535690307617,-1.4064234495162964
2026-01-05 14:57:16.464,1.7676250364673692e+18,32.019369140625,1.5431289672851562,-1.4313535690307617,-1.4064234495162964
2026-01-05 14:57:16.497,1.7676250365074499e+18,32.05944995117188,0.9410884380340576,0.3286561965942383,-1.4064234495162964
2026-01-05 14:57:16.530,1.7676250365475361e+18,32.0995361328125,-2.507431507110596,0.6885914458480116,0.5266270637512207
2026-01-05 14:57:16.563,1.7676250365876142e+18,32.1396142578125,-2.5995407104492188,0.7740815499788497,1.0216258647764027
2026-01-05 14:57:16.596,1.7676250366176732e+18,32.169673217773436,-3.4589731693267822,0.7223625183105468,1.0216258647764027
2026-01-05 14:57:16.629,1.7676250366477307e+18,32.19973059630421,-3.4589731693267822,0.7223625183105468,0.5266270637512207
2026-01-05 14:57:16.662,1.7676250366777882e+18,32.22978820800782,-3.4589731693267822,0.7223625183105468,0.440329372882843
2026-01-05 14:57:16.695,1.7676250367078456e+18,32.259845703125,-2.5876197814941406,0.6088857650756836,0.440329372882843
2026-01-05 14:57:16.728,1.7676250367479342e+18,32.29993432617187,-1.9017797708511357,0.446258544921875,0.22651108905682799
