    time,seconds_elapsed,z,y,x
    1767620467350470700,0.143470703125,1.0659598112106323,0.18570303916931152,0.10445795953273773
    1767620467390576600,0.18357666015625,0.9059131741523743,-0.19547687470912933,-0.5619960427284241
1767620467430668500,0.22366845703125,1.3799445629119873,0.5699372887611389,-0.4801400899887085
1767620467470800400,0.26380029296875,1.9077321290969849,0.5742133259773254,-0.8203920125961304
1767620467510886400,0.303886474609375,1.2131783962249756,1.5741997957229614,-1.681712031364441
1767620467550977300,0.343977294921875,0.07757988572120667,0.4795292317867279,-0.3689626157283783
1767620467591065000,0.384065185546875,0.2272418737411499,0.5992587804794312,-0.8509352803230286
1767620467631190300,0.424190185546875,0.1215621829032898,1.4691308736801147,-0.9327912330627441
1767620467671285500,0.464285400390625,-0.9474520087242126,1.3738359212875366,-0.5638286471366882
1767620467711387400,0.504387451171875,-0.045204028487205505,-0.22052235901355743,-0.6139195561408997
1767620467751480600,0.54448046875,-0.02015855349600315,0.6041457056999207,-0.9065240025520325
1767620467771574000,0.564573974609375,-0.2217440903186798,0.8710938692092896,-0.6792821288108826
1767620467791586000,0.5845859375,-0.22296582162380219,0.484416127204895,-0.4691445231437683
1767620467831696400,0.6246962890625,-0.22418753802776337,0.598647952079773,-0.588874101638794
1767620467871804700,0.6648046875,0.01466076634824276,1.19912850856781,-0.6438519954681396
1767620467911912700,0.70491259765625,0.4538728892803192,1.7171422243118286,-0.799011766910553
1767620467952001800,0.745001708984375,0.2070833146572113,1.0115928649902344,0.1466076523065567
1767620467992096000,0.785095947265625,0.11789698898792267,0.34636059403419495,-0.1007927656173706
1767620468032195300,0.8251953125,0.06719517707824707,0.5320636034011841,-0.3274237811565399
1767620468052273700,0.845273681640625,0.07819075137376785,0.5204572081565857,-0.4129449129104614
1767620468072285400,0.865285400390625,-0.3023782968521118,0.35185837745666504,-0.3988949954509735
1767620468112375300,0.905375244140625,-0.5907067060470581,0.4746423065662384,-0.3933972120285034
1767620468152448800,0.94544873046875,-0.7757988572120667,0.5534439086914062,-0.11728613078594208
1767620468172534300,0.9655341796875,-1.0708467960357666,1.2858713865280151,-0.028099801391363144
1767620468192541400,0.98554150390625,-1.387274980545044,2.3408355712890625,0.1869247704744339
1767620468212619300,1.005619384765625,-1.4422528743743896,2.764165163040161,-0.2015855312347412
1767620468232616200,1.0256162109375,-1.0506882667541504,3.181997060775757,-0.26022860407829285
1767620468272703000,1.065702880859375,-0.7232644557952881,1.5424346923828125,-0.8747590184211731
1767620468292789200,1.085789306640625,-1.379333734512329,-0.8008443117141724,0.23029619455337524
1767620468312794400,1.10579443359375,-1.0293079614639282,0.44226643443107605,0.0403171069920063
1767620468352881200,1.145881103515625,-0.16432274878025055,0.051312681287527084,-0.26083946228027344
1767620468392971800,1.1859716796875,0.294437050819397,-0.2626720666885376,-0.26939156651496887
1767620468433067500,1.226067626953125,-0.12217304855585098,-0.09834930300712585,-0.19975294172763824
1767620468473172700,1.2661728515625,-0.22479841113090515,-0.4050036668777466,-0.35063666105270386
1767620468513257500,1.306257568359375,-1.0806206464767456,-1.207069754600525,-0.26633724570274353
1767620468553344500,1.346344482421875,-0.7165449261665344,0.2742784917354584,-0.23090706765651703
1767620468593435100,1.38643505859375,-0.7586946487426758,0.02382374368607998,-0.152105450630188
1767620468633525500,1.426525390625,-1.1869112253189087,0.33597588539123535,-0.4911356568336487
1767620468673650400,1.466650390625,-2.3011293411254883,-0.607200026512146,-0.45326200127601624
1767620468713733400,1.5067333984375,-2.5949554443359375,-0.9193521738052368,0.014049900695681572
1767620468753849900,1.546849853515625,-2.5534167289733887,-0.7812966704368591,0.5949827432632446
1767620468793933000,1.58693310546875,-1.709811806678772,-1.4941763877868652,-0.35124751925468445
1767620468834041600,1.62704150390625,-0.8338310718536377,-1.453248381614685,-0.9853256344795227
1767620468874119700,1.66711962890625,-0.04764748737215996,1.0152580738067627,-0.018325956538319588
1767620468914211600,1.707211669921875,-0.21380282938480377,-0.42760565876960754,-0.25595253705978394
1767620468954291700,1.747291748046875,-0.1466076523065567,-0.5656611919403076,-0.021380282938480377
1767620468994379300,1.787379150390625,-0.13439035415649414,-0.3378084897994995,-0.036651913076639175
1767620469034481400,1.8274814453125,-0.23884831368923187,-1.3396275043487549,0.2217440903186798
1767620469074595600,1.867595703125,1.3127493858337402,-0.9248499870300293,0.46731191873550415
1767620469114663400,1.907663330078125,2.624277114868164,0.6157521605491638,0.20036379992961884
1767620469154740200,1.947740234375,-1.1136072874069214,-0.7257078886032104,-0.03176499158143997
1767620469194822000,1.98782177734375,-2.386650562286377,-0.7299839854240417,-0.13866640627384186
1767620469234994200,2.027994140625,-2.5613579750061035,-2.0610592365264893,0.09773843735456467
1767620469275070200,2.0680703125,0.036651913076639175,-0.1869247704744339,1.0812314748764038
1767620469315150800,2.10815087890625,0.34574973583221436,-0.6352998614311218,1.7482963800430298
1767620469355234800,2.14823486328125,0.42638394236564636,-0.18814650177955627,1.8460347652435303
1767620469395331800,2.188331787109375,-0.05253441259264946,-0.9877691268920898,1.8741345405578613
1767620469435406800,2.22840673828125,-0.2021963894367218,-0.6505714654922485,0.817948579788208
1767620469475481900,2.26848193359375,0.06230825558304787,-0.34025195240974426,0.05925392732024193
1767620469515580700,2.30858056640625,0.28649580478668213,-0.030543262138962746,-0.6004805564880371
1767620469555677700,2.348677734375,0.46853363513946533,-0.04337143152952194,-0.9523389339447021
1767620469595751400,2.38875146484375,0.4795292317867279,-0.12889257073402405,-0.9663888216018677
1767620469635869700,2.42886962890625,0.17898350954055786,0.26939156651496887,-1.1062769889831543
1767620469675954200,2.4689541015625,-0.04092797264456749,0.2119702398777008,-0.9370672702789307
1767620469716063500,2.5090634765625,0.11301007121801376,0.0757472887635231,-0.45692721009254456
1767620469756172300,2.54917236328125,0.2174680233001709,0.2987131178379059,-0.394008070230484
1767620469796281900,2.58928173828125,0.17104226350784302,0.23945917189121246,-0.32681289315223694
1767620469836387600,2.6293876953125,0.05497787147760391,0.03420845419168472,-0.5338962078094482
1767620469856485000,2.649485107421875,0.05497787147760391,-0.15027284622192383,-0.6591235995292664
1767620469876501500,2.66950146484375,0.04948008432984352,-0.3274237811565399,-0.685390830039978
1767620469916605400,2.70960546875,0.15393804013729095,-0.5216789245605469,-0.44654250144958496
1767620469956713500,2.74971337890625,0.2638937830924988,-0.3530801236629486,0.10201449692249298
1767620469996795600,2.789795654296875,-0.027488935738801956,-0.2877175211906433,0.8704829812049866
1767620470036883500,2.829883544921875,-0.07757988572120667,0.3597996234893799,1.5161675214767456
1767620470076969700,2.8699697265625,-0.03237585723400116,0.39584067463874817,0.26939156651496887
1767620470117056500,2.910056396484375,0.19914206862449646,0.02626720629632473,-0.4056145250797272
1767620470157133800,2.9501337890625,0.22663100063800812,-0.07513642311096191,-0.8307767510414124
1767620470197219000,2.990218994140625,0.07757988572120667,-0.10751228034496307,-0.979827880859375
1767620470237324800,3.03032470703125,0.012217304669320583,-0.22418753802776337,-1.0897835493087769
1767620470277447000,3.070447021484375,0.01038470957428217,-0.5949827432632446,-0.7574729323387146
1767620470317567700,3.110567626953125,0.0507018156349659,-0.543059229850769,-0.26145032048225403
1767620470357685200,3.150685302734375,0.08124507963657379,-0.18448130786418915,0.2889392673969269
1767620470397786400,3.190786376953125,-0.018325956538319588,0.02015855349600315,0.42088615894317627
1767620470437882000,3.230882080078125,0.018936822190880775,0.1563815027475357,0.5546656250953674
1767620470477972200,3.27097216796875,-0.18936823308467865,0.18325957655906677,0.6243042945861816
1767620470518056200,3.31105615234375,-0.23151792585849762,0.16004669666290283,0.759305477142334
1767620470558154200,3.351154296875,-0.05925392732024193,0.08429940044879913,0.5143485069274902
1767620470598257700,3.391257568359375,0.039095375686883926,0.2571742534637451,0.4899139404296875
1767620470638357500,3.431357421875,-0.024434609338641167,0.2785545587539673,0.42577308416366577
1767620470678486500,3.471486572265625,-0.09957103431224823,0.23151792585849762,0.2535090744495392
1767620470718605000,3.51160498046875,-0.02932153269648552,0.08307767659425735,0.3677408695220947
1767620470758711600,3.551711669921875,0.2076941877603531,-0.3536909818649292,1.356731653213501
1767620470798800600,3.591800537109375,0.4404338300228119,-1.2522737979888916,2.3151793479919434
1767620470838921000,3.6319208984375,0.30115658044815063,-1.1325441598892212,1.9706512689590454
1767620470879005400,3.67200537109375,-0.22540926933288574,-0.7556403279304504,0.9083566069602966
1767620470919127300,3.712127197265625,0.16859880089759827,-0.3933972120285034,-0.16737708449363708
1767620470959224300,3.752224365234375,0.23335053026676178,-0.7550294399261475,-0.7257078886032104
1767620470999329500,3.79232958984375,0.16371189057826996,-0.6108652353286743,-1.1459832191467285
1767620471039428900,3.832428955078125,-0.03787364438176155,0.29077184200286865,-1.7232508659362793
1767620471059555000,3.85255517578125,-0.12461651116609573,0.5681046843528748,-1.8979582786560059
1767620471079563000,3.87256298828125,-0.11484266817569733,0.6811147332191467,-2.0421226024627686
1767620471119646700,3.912646728515625,-0.10262536257505417,0.6401867866516113,-1.8380935192108154
1767620471159767300,3.952767333984375,-0.05314527451992035,0.5290092825889587,-0.950506329536438
1767620471179853800,3.972853759765625,-0.03420845419168472,0.5387831330299377,-0.5968153476715088
1767620471199860700,3.99286083984375,-0.03176499158143997,0.5968153476715088,-0.34758231043815613
1767620471239962600,4.032962646484375,0.11789698898792267,0.5931501388549805,-0.11667526513338089
1767620471280064800,4.073064697265625,0.2528982162475586,0.37629300355911255,-0.2938261926174164
1767620471320180700,4.1131806640625,0.2987131178379059,0.22357667982578278,-0.3292563557624817
1767620471360283100,4.153283203125,0.17898350954055786,-0.03176499158143997,0.4086688458919525
1767620471400370200,4.1933701171875,0.08185594528913498,0.00366519158706069,0.7849618196487427
1767620471440461800,4.2334619140625,0.0708603709936142,0.6065891981124878,1.6224581003189087
1767620471460547600,4.253547607421875,0.01466076634824276,1.043968677520752,1.1258246898651123
1767620471480549000,4.273549072265625,-0.3121521472930908,0.48869219422340393,0.40744712948799133
1767620471520635400,4.313635498046875,-0.021380282938480377,0.031154127791523933,-0.3219259977340698
1767620471560723500,4.353723388671875,0.01771509274840355,0.003054326167330146,-0.8717046976089478
1767620471600809000,4.39380908203125,-0.06414084881544113,-0.04703662544488907,-0.9425650835037231
1767620471640908000,4.433907958984375,-0.08307767659425735,-0.1270599663257599,-0.8497135639190674
1767620471681013000,4.474012939453125,0.039095375686883926,-0.1362229436635971,-0.5106833577156067
1767620471721120800,4.514120849609375,-0.10567969083786011,-0.018936822190880775,0.2021963894367218
1767620471761217500,4.554217529296875,-0.3854559659957886,0.2168571650981903,0.778853178024292
1767620471801341700,4.594341796875,-0.25961771607398987,0.4202753007411957,0.6163630485534668
1767620471841425200,4.634425048828125,0.04581489413976669,-0.012217304669320583,0.7287622094154358
1767620471881516300,4.674516357421875,-0.02076941914856434,-0.4764748811721802,0.7800748944282532
1767620471921629000,4.71462890625,-0.09834930300712585,0.46670106053352356,0.6530149579048157
1767620471961732600,4.754732666015625,-0.12950342893600464,0.44776421785354614,0.8356636762619019
1767620472001833700,4.794833740234375,0.14538592100143433,0.02382374368607998,1.5515977144241333
1767620472041965000,4.834965087890625,0.33475416898727417,-0.6206390857696533,2.20583438873291
1767620472082059000,4.87505908203125,0.5393940210342407,-0.7324274182319641,1.8753563165664673
1767620472122153200,4.9151533203125,-0.039706241339445114,0.05253441259264946,0.6481280326843262
1767620472142244400,4.935244384765625,0.2528982162475586,-0.06658431142568588,0.3182607889175415
1767620472162248700,4.955248779296875,0.11850785464048386,-0.29077184200286865,-0.0403171069920063
1767620472202375400,4.99537548828125,-0.09224065393209457,-0.42638394236564636,-0.7391469478607178
1767620472242471400,5.035471435546875,-0.304210901260376,-0.5913175344467163,-1.0054842233657837
1767620472262593500,5.055593505859375,-0.35185837745666504,-0.19364428520202637,-1.3445143699645996
1767620472282601700,5.075601806640625,-0.3591887652873993,0.07635815441608429,-1.6273449659347534
1767620472322692400,5.1156923828125,-0.26145032048225403,0.6224716901779175,-2.1172590255737305
1767620472362811000,5.155810791015625,-0.16310101747512817,0.42271876335144043,-2.141082763671875
1767620472402903000,5.195903076171875,0.1215621829032898,0.19547687470912933,-1.5650367736816406
1767620472442998000,5.235998046875,0.08124507963657379,-0.0024434609804302454,-0.8148942589759827
1767620472483083500,5.27608349609375,0.1215621829032898,0.5180137157440186,-0.1771509200334549
1767620472523191800,5.31619189453125,0.17104226350784302,0.6145304441452026,-0.048258353024721146
1767620472563286000,5.3562861328125,0.2015855312347412,0.37690386176109314,-0.20341812074184418
1767620472603395000,5.39639501953125,0.24129177629947662,-0.44104471802711487,0.1368338167667389
1767620472643491000,5.436490966796875,0.048258353024721146,-0.10018189996480942,-0.030543262138962746
1767620472683598800,5.476598876953125,0.5076290369033813,-0.6896668672561646,0.5155702829360962
1767620472723680500,5.516680419921875,-0.18020524084568024,-0.11667526513338089,1.8387043476104736
1767620472763757800,5.5567578125,-0.1973094791173935,1.7507398128509521,-0.17959438264369965
1767620472803832600,5.59683251953125,-0.1062905490398407,-0.22479841113090515,-0.26633724570274353
1767620472843944000,5.63694384765625,-0.05803219974040985,-0.1313360333442688,-0.9395107626914978
1767620472884028700,5.677028564453125,-0.15760323405265808,-0.12889257073402405,-0.8607091307640076
1767620472924116000,5.717115966796875,-0.027488935738801956,-0.05925392732024193,-0.7263187766075134
1767620472964195000,5.757195068359375,0.014049900695681572,-0.14233160018920898,-0.37751471996307373
1767620473004308500,5.79730859375,0.018936822190880775,-0.2565633952617645,0.16798794269561768
1767620473044389000,5.83738916015625,-0.41599923372268677,0.4245513379573822,0.5864306092262268
1767620473084502300,5.877502197265625,-0.13439035415649414,0.5149593949317932,0.9162978529930115
1767620473124579000,5.9175791015625,0.17776179313659668,-0.34758231043815613,0.836885392665863
1767620473164652500,5.957652587890625,-0.02382374368607998,0.19425514340400696,0.46303585171699524
1767620473204735500,5.997735595703125,0.21135938167572021,0.3072652220726013,0.788016140460968
1767620473224814800,6.01781494140625,0.2828305959701538,0.48258355259895325,1.1820242404937744
1767620473244813600,6.0378134765625,0.3084869384765625,0.09285151958465576,1.8209892511367798
1767620473284881000,6.077880859375,0.25595253705978394,-0.4538728892803192,2.82769513130188
1767620473324948700,6.11794873046875,0.21319197118282318,-0.5998696684837341,2.191173553466797
1767620473365016600,6.1580166015625,-0.11911872029304504,-0.7165449261665344,0.9059131741523743
1767620473405086000,6.1980859375,-0.03176499158143997,-0.25106561183929443,-0.3543018400669098
1767620473445152500,6.238152587890625,0.025656340643763542,-0.17959438264369965,-0.9718865752220154
1767620473485244700,6.27824462890625,-0.08552113175392151,-0.29138273000717163,-1.4269812107086182
1767620473525313000,6.31831298828125,-0.34025195240974426,0.19914206862449646,-2.065335512161255
1767620473565381400,6.35838134765625,-0.48380526900291443,0.6725626587867737,-2.514932155609131
1767620473605455600,6.39845556640625,-0.2070833146572113,0.44104471802711487,-2.0616703033447266
1767620473645562400,6.438562255859375,-0.3280346393585205,-0.23640485107898712,-0.8503243923187256
1767620473685646000,6.47864599609375,-0.00733038317412138,0.6792821288108826,0.30054569244384766
1767620473705734400,6.498734375,0.21624629199504852,1.1197160482406616,0.31642818450927734
1767620473725742800,6.518742919921875,0.3292563557624817,1.0769554376602173,0.2370157092809677
1767620473765838300,6.55883837890625,0.475253164768219,-0.20525072515010834,0.4392121136188507
1767620473805920800,6.598920654296875,-0.07880161702632904,0.48808133602142334,0.37140607833862305
1767620473846009900,6.639009765625,0.11239920556545258,-0.9169087409973145,0.9841039180755615
1767620473886097000,6.679096923828125,0.08429940044879913,0.5064072608947754,0.9187413454055786
1767620473906184200,6.69918408203125,-0.20402899384498596,0.14233160018920898,0.19486601650714874
1767620473926188800,6.719188720703125,-0.08307767659425735,0.8112290501594543,-0.5473352670669556
1767620473966375200,6.759375244140625,0.05314527451992035,-0.2675589919090271,-0.7269296646118164
1767620474006470000,6.799469970703125,-0.04214970022439957,-0.30054569244384766,-0.9834930300712585
1767620474046569700,6.83956982421875,0.03481931984424591,-0.40683624148368835,-0.9871582388877869
1767620474086668300,6.879668212890625,0.06108652427792549,-0.29626965522766113,-0.7910705208778381
1767620474106791400,6.89979150390625,-0.0757472887635231,-0.49724429845809937,-0.48685958981513977
1767620474126805000,6.919804931640625,-0.1160643994808197,-0.42577308416366577,-0.04948008432984352
1767620474166895000,6.95989501953125,-0.1875356286764145,0.25534167885780334,0.5772676467895508
1767620474207018200,7.000018310546875,-0.3078760802745819,0.06902777403593063,0.5503895878791809
1767620474247112200,7.0401123046875,-0.06902777403593063,0.10690141469240189,0.788627028465271
1767620474287232300,7.080232177734375,-0.03420845419168472,-0.003054326167330146,0.5436700582504272
1767620474327319000,7.120319091796875,0.20952677726745605,0.019547687843441963,0.6921103000640869
1767620474367405800,7.16040576171875,0.5711590051651001,0.03176499158143997,1.6450600624084473
1767620474407500500,7.20050048828125,0.45204028487205505,-0.5528330206871033,2.5864033699035645
1767620474447598300,7.240598388671875,0.3701843321323395,-0.04337143152952194,1.872912883758545
1767620474487689700,7.280689697265625,0.018936822190880775,-0.32009339332580566,0.7434229850769043
1767620474527772700,7.320772705078125,0.22846360504627228,-0.38240164518356323,-0.2535090744495392
1767620474567870000,7.360869873046875,0.18997909128665924,-0.37568211555480957,-0.7825183868408203
1767620474607983900,7.40098388671875,-0.12461651116609573,-0.17592918872833252,-1.2956452369689941
1767620474648063200,7.441063232421875,-0.3237585723400116,0.20341812074184418,-1.8881844282150269
1767620474668177000,7.461177001953125,-0.40133845806121826,0.4392121136188507,-2.1649065017700195
1767620474688180200,7.48118017578125,-0.49235737323760986,0.6908885836601257,-2.4361305236816406
1767620474728264400,7.521264404296875,-0.1661553531885147,-0.059864792972803116,-2.230879783630371
1767620474768376300,7.561376220703125,-0.1014036312699318,-0.5797111392021179,-1.3005321025848389
1767620474788457200,7.581457275390625,-0.07024950534105301,-0.5552765130996704,-0.5564982295036316
1767620474808465700,7.601465576171875,0.0555887371301651,-0.1716531366109848,0.045204028487205505
1767620474848563200,7.641563232421875,0.3396410644054413,0.5161811113357544,0.3488040566444397
1767620474888645600,7.681645751953125,0.35552358627319336,0.05925392732024193,1.5992451906204224
1767620474908763000,7.701762939453125,-0.015882495790719986,1.102611780166626,0.7947356700897217
1767620474928764000,7.721763916015625,0.08979719132184982,0.31031954288482666,0.759916365146637
1767620474968848600,7.7618486328125,0.12828169763088226,1.1264355182647705,1.310916781425476
1767620475008974600,7.801974609375,0.12400564551353455,0.8784242272377014,0.28038713335990906
1767620475049066200,7.842066162109375,-0.08002334833145142,0.08185594528913498,-0.3500257730484009
1767620475069187300,7.862187255859375,0.25473082065582275,0.06658431142568588,-0.911410927772522
1767620475089188600,7.882188720703125,0.010995574295520782,-0.2883284091949463,-0.9737191796302795
1767620475129274400,7.9222744140625,-0.11850785464048386,-0.5363397002220154,-1.0598511695861816
1767620475169374000,7.9623740234375,0.00366519158706069,-0.36102136969566345,-0.9963212013244629
1767620475189463300,7.98246337890625,-0.021380282938480377,-0.23396138846874237,-0.8558222055435181
1767620475209459700,8.002459716796874,-0.051312681287527084,-0.2785545587539673,-0.5998696684837341
1767620475249570600,8.042570556640625,-0.23090706765651703,-0.35063666105270386,0.2125810980796814
1767620475289671400,8.08267138671875,-0.2968805134296417,0.4593706727027893,0.7483099102973938
1767620475329756000,8.122755859375,-0.14844025671482086,0.5583308339118958,0.6261368989944458
1767620475369848300,8.162848388671875,-0.02932153269648552,0.04398229718208313,0.7379252314567566
1767620475409951000,8.202950927734374,-0.0806342139840126,0.12522737681865692,0.8313875794410706
1767620475450030000,8.243030029296875,0.15515977144241333,0.23945917189121246,0.9932668805122375
1767620475490105900,8.28310595703125,0.43737950921058655,-0.35735616087913513,1.984701156616211
1767620475530188300,8.323188232421876,0.5534439086914062,-0.4355469346046448,2.4245240688323975
1767620475570265600,8.363265625,0.484416127204895,-0.4300491213798523,1.7605136632919312
1767620475590350300,8.383350341796875,0.2321287989616394,-0.3225368559360504,1.2486085891723633
1767620475610349300,8.403349365234375,0.17531833052635193,-0.3445279896259308,0.7354817390441895
1767620475650444800,8.44344482421875,-0.05192354694008827,-0.3927863538265228,-0.27488934993743896
1767620475690544600,8.483544677734375,-0.0354301854968071,-0.5858197808265686,-0.7122688889503479
1767620475730646800,8.523646728515626,-0.30543261766433716,-0.4862487316131592,-1.1759155988693237
1767620475770739500,8.563739501953124,-0.4453207552433014,0.09957103431224823,-1.5919147729873657
1767620475810860300,8.6038603515625,-0.3891211748123169,0.8252789378166199,-2.0219640731811523
1767620475830943500,8.623943603515626,-0.3078760802745819,0.9963212013244629,-2.1533000469207764
1767620475850946600,8.643946533203126,-0.2168571650981903,0.7324274182319641,-2.0916025638580322
1767620475891077400,8.684077392578125,-0.1111774742603302,0.303600013256073,-1.4373658895492554
1767620475931178500,8.724178466796875,-0.13927727937698364,0.18020524084568024,-0.5681046843528748
1767620475971274200,8.764274169921874,-0.018325956538319588,0.655458390712738,-0.19792033731937408
1767620476011373000,8.804373046875,0.1411098688840866,0.31031954288482666,-0.1007927656173706
1767620476051472600,8.84447265625,0.22113321721553802,-0.06536258012056351,0.12828169763088226
1767620476091565600,8.884565673828124,-0.039706241339445114,0.6035348773002625,0.4495968222618103
1767620476111651000,8.904651123046875,0.1313360333442688,0.5473352670669556,0.7409795522689819
1767620476131657000,8.924656982421874,0.23457226157188416,-0.6798930168151855,0.8894197940826416
1767620476171741200,8.9647412109375,0.030543262138962746,0.6743952035903931,1.7922786474227905
1767620476211854800,9.004854736328125,0.0757472887635231,1.0476338863372803,-0.46181413531303406
1767620476231940600,9.024940673828125,-0.20586158335208893,0.5577199459075928,0.10201449692249298
1767620476251944000,9.04494384765625,0.11728613078594208,-0.1313360333442688,-0.44654250144958496
1767620476292025900,9.08502587890625,-0.12278391420841217,-0.12339477986097336,-0.8497135639190674
1767620476312108300,9.1051083984375,-0.13255776464939117,-0.2736676335334778,-0.9492846131324768
1767620476332151000,9.125151123046875,-0.08307767659425735,-0.30054569244384766,-1.0036516189575195
1767620476372255200,9.165255126953125,-0.12339477986097336,-0.39584067463874817,-0.7623597979545593
1767620476412361200,9.205361328125,-0.14477506279945374,-0.2028072625398636,-0.26450464129447937
1767620476452486100,9.245486083984375,-0.13988813757896423,0.23640485107898712,0.4251621961593628
1767620476492590300,9.28559033203125,-0.17409659922122955,0.40256020426750183,0.7037167549133301
1767620476532713200,9.325713134765625,0.03481931984424591,0.3597996234893799,0.6035348773002625
1767620476572817400,9.3658173828125,0.018325956538319588,0.2217440903186798,0.9456194043159485
1767620476612934700,9.4059345703125,0.0006108652451075613,0.2773328125476837,0.9529497623443604
1767620476653027800,9.44602783203125,-0.1973094791173935,0.342695415019989,1.027475357055664
1767620476693128000,9.4861279296875,-0.2620611786842346,-0.06475171446800232,2.0231857299804688
1767620476733218000,9.526218017578126,0.01771509274840355,-1.0305296182632446,2.956587791442871
1767620476773331000,9.5663310546875,-0.0024434609804302454,-0.8533787727355957,2.4440717697143555
1767620476813412600,9.60641259765625,-0.3439171314239502,0.25595253705978394,0.8759807348251343
1767620476853545200,9.646545166015626,-0.3237585723400116,0.7867944240570068,-0.37140607833862305
1767620476893651700,9.686651611328125,-0.1820378452539444,0.6285803318023682,-1.0519099235534668
1767620476933738800,9.72673876953125,-0.504574716091156,0.7220427393913269,-1.816102385520935
1767620476973824800,9.76682470703125,-0.8979719281196594,1.0574077367782593,-2.253481864929199
1767620477013939000,9.80693896484375,-0.8594874143600464,1.6475036144256592,-2.387261390686035
1767620477054028800,9.84702880859375,-0.494189977645874,1.4184291362762451,-2.1954495906829834
1767620477094160100,9.88716015625,-0.3194825351238251,0.9828822016716003,-1.7104226350784302
1767620477134259700,9.927259765625,0.04459316283464432,1.671938180923462,-1.0867292881011963
1767620477174375400,9.96737548828125,0.15821409225463867,1.6102408170700073,-0.4508185386657715
1767620477214483000,10.00748291015625,0.06719517707824707,1.4440854787826538,-0.342695415019989
1767620477254601200,10.047601318359375,-0.12095131725072861,0.7580837607383728,0.01771509274840355
1767620477294698800,10.08769873046875,0.14905111491680145,0.9957103729248047,0.5369505286216736
1767620477314816300,10.107816162109375,0.28099802136421204,1.2198978662490845,0.30482175946235657
1767620477334821400,10.1278212890625,0.4178318381309509,0.5198463201522827,0.5894849896430969
1767620477374914300,10.167914306640625,-0.02382374368607998,0.35552358627319336,1.9834794998168945
1767620477415009800,10.208009765625,-0.5296201705932617,1.6365079879760742,0.2626720666885376
1767620477455111400,10.248111328125,-0.05009094998240471,1.3060299158096313,-0.24617868661880493
1767620477495211300,10.288211181640625,0.23029619455337524,1.0207557678222656,-0.5314527750015259
1767620477535303400,10.328303466796875,-0.27977627515792847,0.9462302923202515,-0.7104362845420837
1767620477575411200,10.3684111328125,-0.1466076523065567,1.053742527961731,-0.6933320760726929
1767620477615520000,10.40852001953125,-0.2321287989616394,0.7849618196487427,-0.33475416898727417
1767620477655633400,10.44863330078125,-0.32986724376678467,0.9865473508834839,0.04092797264456749
1767620477695741400,10.488741455078125,-0.34086281061172485,0.9089674949645996,0.3139847218990326
1767620477735845000,10.52884521484375,-0.21013765037059784,0.6029239892959595,0.6548475623130798
1767620477775948300,10.5689482421875,-0.2779437005519867,0.6640105247497559,0.6780604124069214
1767620477816083700,10.609083740234375,-0.22968533635139465,0.7470881938934326,0.6908885836601257
1767620477856180000,10.649179931640624,-0.31093040108680725,1.0225883722305298,0.6218608021736145
1767620477896278000,10.689278076171876,-0.3885102868080139,1.441641926765442,0.48197266459465027
1767620477916362800,10.70936279296875,-0.3219259977340698,1.3897184133529663,0.44593164324760437
1767620477936367000,10.7293671875,-0.0806342139840126,1.4501941204071045,0.5577199459075928
1767620477976457000,10.76945703125,0.8637634515762329,0.5821545720100403,1.3347405195236206
1767620478016543200,10.809543212890626,0.7104362845420837,0.685390830039978,1.72935950756073
1767620478056665900,10.849665771484375,0.24923302233219147,1.3781119585037231,1.3573426008224487
1767620478096756500,10.889756591796875,-0.20463985204696655,0.05009094998240471,1.3487904071807861
1767620478136839400,10.92983935546875,-1.0335839986801147,-0.24190263450145721,0.9853256344795227
1767620478176923100,10.969923095703125,-1.651168704032898,-0.1014036312699318,0.5729916095733643
1767620478216999000,11.0099990234375,-1.7812830209732056,0.9193521738052368,-0.35185837745666504
1767620478237087500,11.03008740234375,-1.6603317260742188,1.2388347387313843,-0.779464066028595
1767620478257087000,11.0500869140625,-1.5125023126602173,1.5106697082519531,-1.1753047704696655
1767620478277168600,11.070168701171875,-1.4660766124725342,1.7299703359603882,-1.480737328529358
1767620478297166000,11.090166015625,-1.4856243133544922,1.8625280857086182,-1.6939293146133423
1767620478337244400,11.130244384765625,-1.205847978591919,1.7660114765167236,-1.9168951511383057
1767620478377356500,11.1703564453125,-0.5296201705932617,2.0781636238098145,-1.9162843227386475
1767620478417462500,11.210462646484375,-0.08368854224681854,2.0897700786590576,-1.6352862119674683
1767620478457554400,11.250554443359375,0.042760565876960754,1.711033582687378,-1.189354658126831
1767620478497668900,11.2906689453125,0.20952677726745605,1.8136589527130127,-0.7299839854240417
1767620478537775600,11.330775634765626,0.08124507963657379,1.1386528015136719,-0.251676470041275
1767620478577849600,11.370849609375,0.09162978827953339,0.6902777552604675,0.16310101747512817
1767620478617964500,11.410964599609375,0.35124751925468445,1.3041973114013672,1.2651019096374512
1767620478638044400,11.43104443359375,0.627358615398407,1.445918083190918,1.2932016849517822
1767620478658046500,11.45104638671875,-0.033597588539123535,0.5937610268592834,1.508837103843689
1767620478698211000,11.491211181640624,-0.5070181488990784,1.7214182615280151,1.5644259452819824
1767620478738302700,11.531302734375,-0.1563815027475357,2.6841418743133545,-0.7574729323387146
1767620478778420200,11.571420166015624,0.19303341209888458,1.5027284622192383,-0.7269296646118164
1767620478818502000,11.611501953125,-0.36713001132011414,1.2040153741836548,-0.8020660877227783
1767620478858626600,11.65162646484375,-0.2926044464111328,1.32863187789917,-0.7831292152404785
1767620478898723800,11.691723876953125,-0.2217440903186798,1.3310753107070923,-0.5510004758834839
1767620478918823000,11.711822998046875,-0.2590068578720093,1.2565498352050781,-0.3439171314239502
1767620478938829000,11.7318291015625,-0.26511552929878235,1.2785409688949585,-0.1569923609495163
1767620478978931500,11.771931396484375,-0.26511552929878235,1.0409144163131714,0.2968805134296417
1767620479019041000,11.812041015625,-0.2767219543457031,0.7244861721992493,0.7147123217582703
1767620479059135200,11.85213525390625,-0.1820378452539444,1.1679743528366089,0.6224716901779175
1767620479099238100,11.892238037109376,0.05253441259264946,0.7849618196487427,0.817948579788208
1767620479139338800,11.9323388671875,-0.14233160018920898,0.7751879692077637,0.7654141783714294
1767620479159433000,11.952432861328125,-0.2535090744495392,1.1288789510726929,0.6585127115249634
1767620479179440600,11.972440673828125,-0.38179078698158264,1.2370021343231201,0.7709119319915771
1767620479219527200,12.012527099609375,-0.21013765037059784,1.1056660413742065,1.5968017578125
1767620479239610600,12.032610595703124,0.02626720629632473,0.9266825914382935,2.157576084136963
1767620479259613700,12.05261376953125,0.182648703455925,0.29565876722335815,2.447736978530884
1767620479299700700,12.09270068359375,0.45753806829452515,0.17470745742321014,2.1759018898010254
1767620479339789000,12.1327890625,0.07819075137376785,0.23273965716362,1.1117748022079468
1767620479379885600,12.172885498046876,-0.08429940044879913,0.43737950921058655,0.43799036741256714
1767620479419997000,12.212996826171874,0.1111774742603302,-0.10812314599752426,-0.03787364438176155
1767620479460097500,12.25309765625,-0.27488934993743896,-0.4966334402561188,-0.3732386529445648
1767620479500191200,12.293191162109375,-0.8228355050086975,-0.1417207419872284,-0.7458664774894714
1767620479540281900,12.33328173828125,-0.5797111392021179,0.3836233615875244,-1.389107584953308
1767620479580406800,12.37340673828125,-0.6438519954681396,0.22113321721553802,-1.711033582687378
1767620479600494800,12.393494873046874,-0.6145304441452026,-0.025045474991202354,-1.7159204483032227
1767620479620502500,12.41350244140625,-0.5314527750015259,-0.25473082065582275,-1.6096298694610596
1767620479660609000,12.453609130859375,-0.35613444447517395,-0.8912523984909058,-1.0653489828109741
1767620479700693500,12.493693603515625,-0.07635815441608429,-1.178359031677246,-0.02871066704392433
1767620479740808400,12.533808349609375,-0.05314527451992035,-0.7580837607383728,0.4691445231437683
1767620479780883500,12.573883544921875,0.09529497474431992,-0.3292563557624817,0.3781255781650543
1767620479820969700,12.6139697265625,-0.04214970022439957,-0.08979719132184982,1.72935950756073
1767620479861044700,12.654044677734374,-0.3885102868080139,1.5076154470443726,2.3774874210357666
1767620479901134000,12.694134033203126,0.1569923609495163,1.3194689750671387,0.19058994948863983
1767620479941241900,12.734241943359375,-0.5094616413116455,1.4801265001296997,0.007941247895359993
1767620479961328000,12.754328125,0.4801400899887085,0.5772676467895508,-0.6224716901779175
1767620479981337000,12.774337158203124,0.6872233748435974,-0.2480112910270691,-0.799011766910553
1767620480021415400,12.81441552734375,0.054367005825042725,-1.0769554376602173,-1.168585181236267
1767620480061505800,12.854505859375,-0.3084869384765625,-0.7544185519218445,-1.3439035415649414
1767620480101610800,12.89461083984375,0.07269296050071716,-0.9175195693969727,-1.2119566202163696
1767620480141707000,12.93470703125,-0.045204028487205505,-1.2907582521438599,-0.8136724829673767
1767620480181794600,12.974794677734375,-0.16920967400074005,-1.0873401165008545,-0.2321287989616394
1767620480221989400,13.0149892578125,-0.1814269721508026,-0.4697553813457489,-0.004886921960860491
1767620480242078000,13.035077880859374,-0.04459316283464432,-0.5937610268592834,0.056810468435287476
1767620480262081300,13.055081298828124,-0.018325956538319588,-0.6841690540313721,0.12339477986097336
1767620480302175500,13.095175537109375,0.010995574295520782,-0.5522221922874451,0.06841690838336945
1767620480342269000,13.13526904296875,0.06658431142568588,-0.8717046976089478,0.09896016865968704
1767620480382371800,13.175371826171874,0.10201449692249298,-1.3555099964141846,0.26633724570274353
1767620480422489600,13.215489501953124,0.18325957655906677,-1.5888605117797852,0.8295549750328064
1767620480442593500,13.235593505859375,0.19853121042251587,-1.5894713401794434,1.4367550611495972
1767620480462608100,13.255608154296874,0.3127630054950714,-1.540602207183838,2.0952677726745605
1767620480502698800,13.29569873046875,0.5326744914054871,-1.5711454153060913,2.749504566192627
1767620480542826200,13.335826171875,0.9327912330627441,-2.403143882751465,2.174680233001709
1767620480582913300,13.375913330078125,2.235766887664795,-3.012787342071533,0.7855727076530457
1767620480623001000,13.4160009765625,2.6340508460998535,-2.833193063735962,-0.18814650177955627
1767620480663083500,13.45608349609375,2.7397305965423584,-2.9828550815582275,-0.8087855577468872
1767620480703180000,13.496179931640626,2.03540301322937,-3.7250561714172363,-1.2522737979888916
1767620480743260400,13.536260498046875,1.2962560653686523,-3.783088445663452,-1.441641926765442
1767620480783336700,13.576336669921876,1.0005972385406494,-3.1978795528411865,-1.8252654075622559
1767620480803419000,13.5964189453125,0.7470881938934326,-3.1832187175750732,-2.1032090187072754
1767620480823428600,13.6164287109375,0.2981022298336029,-3.7751471996307373,-2.14902400970459
1767620480863530500,13.656530517578124,0.4764748811721802,-4.040262699127197,-0.8356636762619019
1767620480903614500,13.696614501953125,0.685390830039978,-2.1697933673858643,0.6902777552604675
1767620480943705300,13.736705322265625,0.009773843921720982,0.22418753802776337,-0.5510004758834839
1767620480983790000,13.7767900390625,0.003054326167330146,-2.919935941696167,0.9431759119033813
1767620481023870500,13.816870361328125,-0.26572638750076294,-2.1148154735565186,-0.2474004179239273
1767620481043952600,13.83695263671875,-0.30482175946235657,-1.4892895221710205,-0.19303341209888458
1767620481063952600,13.85695263671875,-0.394008070230484,-1.1362093687057495,0.028099801391363144
1767620481104033300,13.897033203125,0.15271630883216858,-1.4495831727981567,-0.7531968355178833
1767620481124116000,13.917115966796874,0.09040805697441101,-1.0873401165008545,-0.617584764957428
1767620481144117800,13.93711767578125,0.07696902006864548,-0.9963212013244629,-0.6585127115249634
1767620481184221700,13.9772216796875,0.1918116807937622,-1.2699888944625854,-0.8808676600456238
1767620481224326400,14.017326416015624,-0.07757988572120667,-0.9395107626914978,-0.8747590184211731
1767620481264440000,14.057440185546875,-0.18325957655906677,-0.28466320037841797,-0.7965682744979858
1767620481304537900,14.097537841796875,-0.13011430203914642,-0.949895441532135,-0.5607742667198181
1767620481344647000,14.13764697265625,-0.15393804013729095,-1.2040153741836548,-0.5241223573684692
1767620481384748000,14.177748046875,-0.3286454975605011,-1.043968677520752,-0.6004805564880371
1767620481424862200,14.2178623046875,-0.617584764957428,-0.7195992469787598,-0.684779942035675
1767620481464975400,14.257975341796875,-0.4001167416572571,-0.6096435189247131,-0.43127086758613586
1767620481505085700,14.298085693359376,-0.24984388053417206,-0.5919284224510193,-0.21441370248794556
1767620481545170400,14.33817041015625,-0.598647952079773,-0.8252789378166199,0.20525072515010834
1767620481585287200,14.378287109375,-0.16920967400074005,-0.8680394887924194,0.617584764957428
1767620481625365800,14.41836572265625,0.3225368559360504,-0.8222246170043945,1.9523253440856934
1767620481665440300,14.458440185546875,0.9804387092590332,-0.7141014933586121,3.151453733444214
1767620481705517600,14.498517578125,1.1948524713516235,-0.4153883755207062,2.8093693256378174
1767620481745638000,14.538637939453125,1.8124371767044067,-1.235169529914856,2.758056640625
1767620481765722000,14.55872216796875,1.7837265729904175,-1.0561859607696533,2.546086311340332
1767620481785724400,14.578724365234375,1.7366899251937866,-1.7085901498794556,2.66642689704895
1767620481805806800,14.598806884765626,1.7525724172592163,-2.5717427730560303,3.2510247230529785
1767620481825802200,14.61880224609375,1.891238808631897,-2.6444356441497803,3.7311649322509766
1767620481865883000,14.6588828125,1.6682729721069336,-2.63832688331604,3.718947649002075
1767620481906000100,14.699000244140626,0.6053674817085266,-2.765997886657715,3.0909781455993652
1767620481946080500,14.73908056640625,0.08552113175392151,-2.6926939487457275,2.3628268241882324
1767620481986190000,14.779190185546875,0.17043140530586243,-1.8661932945251465,1.6279559135437012
1767620482026268200,14.81926806640625,0.4813618063926697,-1.321912407875061,0.38667771220207214
1767620482066354200,14.859354248046875,0.7159340381622314,-1.5851953029632568,-0.25595253705978394
1767620482106446300,14.8994462890625,1.2376129627227783,-1.3658946752548218,-0.50335294008255
1767620482146573600,14.939573486328126,1.169806957244873,0.08735372871160507,-1.4880677461624146
1767620482186654700,14.97965478515625,0.021380282938480377,-1.1734721660614014,0.9205739498138428
1767620482226769000,15.019768798828125,0.47342056035995483,0.9266825914382935,-1.7825047969818115
1767620482266851800,15.059851806640625,0.3286454975605011,0.4605923891067505,-1.7464637756347656
1767620482306927400,15.09992724609375,0.054367005825042725,1.004873275756836,-2.2571470737457275
1767620482327010800,15.1200107421875,-0.19853121042251587,1.6566665172576904,-2.546086311340332
1767620482347011800,15.14001171875,-0.4544837474822998,1.5167783498764038,-2.5112669467926025
1767620482387113000,15.180113037109376,-0.3903428912162781,0.43127086758613586,-2.5809056758880615
1767620482427221500,15.220221435546875,-0.16737708449363708,-0.40622538328170776,-2.618168354034424
1767620482467335400,15.26033544921875,-0.1319468915462494,-0.5125159621238708,-2.582127332687378
1767620482487431700,15.280431640625,-0.10506882518529892,-0.513737678527832,-2.4630086421966553
1767620482507447000,15.300447021484375,-0.06230825558304787,-0.4691445231437683,-2.22782564163208
1767620482547553800,15.3405537109375,-0.0861319974064827,-0.24678955972194672,-1.7287486791610718
1767620482567651300,15.3606513671875,-0.1466076523065567,-0.1869247704744339,-1.4196507930755615
1767620482587664400,15.380664306640625,-0.1918116807937622,-0.21135938167572021,-1.1447614431381226
1767620482627764200,15.42076416015625,-0.29138273000717163,-0.27977627515792847,-0.9175195693969727
1767620482667860700,15.46086083984375,-0.2064724564552307,-0.28955012559890747,-0.9175195693969727
1767620482707979500,15.5009794921875,-0.13439035415649414,-0.4599815309047699,-1.2064588069915771
1767620482748067300,15.5410673828125,-0.1062905490398407,-0.47280970215797424,-0.6982190012931824
1767620482788140800,15.581140869140626,-0.18325957655906677,-0.5497786998748779,0.47280970215797424
1767620482828213200,15.621213134765625,-0.2669481039047241,-1.1966849565505981,2.4135286808013916
1767620482868282000,15.6612822265625,-0.02321287989616394,-1.7061465978622437,3.953519821166992
1767620482908349400,15.701349365234375,0.06108652427792549,-0.817948579788208,3.8429532051086426
1767620482948417800,15.741417724609375,1.538158655166626,-1.0311405658721924,2.4697282314300537
1767620482988499000,15.7814990234375,1.9706512689590454,-3.520416498184204,2.747061014175415
1767620483028573400,15.821573486328125,2.4361305236816406,-3.9455785751342773,2.7207937240600586
1767620483068647400,15.8616474609375,2.939483642578125,-3.8240163326263428,3.0720412731170654
1767620483108734700,15.901734619140624,2.39214825630188,-3.3212742805480957,2.7030787467956543
1767620483148809500,15.9418095703125,1.387274980545044,-2.922990083694458,2.252871036529541
1767620483188923000,15.9819228515625,1.2712105512619019,-2.356107234954834,1.6010777950286865
1767620483229015800,16.022015869140624,1.274264931678772,-2.2064452171325684,0.9749409556388855
1767620483269096000,16.062095947265625,1.3170254230499268,-1.938886284828186,0.4508185386657715
1767620483289181200,16.08218115234375,1.3359622955322266,-1.6597208976745605,0.22846360504627228
1767620483309182000,16.102181884765624,1.3524556159973145,-1.4398094415664673,-0.024434609338641167
1767620483349284400,16.142284423828126,1.2907582521438599,-1.282817006111145,-0.32559117674827576
1767620483389380400,16.18238037109375,1.451415777206421,-0.7715228199958801,-0.26633724570274353
1767620483429456000,16.222455810546876,1.0323622226715088,-0.7446447610855103,-0.1973094791173935
1767620483469533000,16.262532958984377,0.7812966704368591,-0.24007004499435425,-0.7305948138237
1767620483509642000,16.30264208984375,0.607810914516449,0.3194825351238251,-1.6603317260742188
1767620483549728500,16.342728515625,0.35063666105270386,0.6481280326843262,-1.5583171844482422
1767620483589830400,16.382830322265626,0.12278391420841217,1.1374311447143555,-1.8368717432022095
1767620483629933600,16.42293359375,-0.14966198801994324,0.7238753437995911,-1.8832975625991821
1767620483670039000,16.4630390625,-0.20586158335208893,-0.3793473243713379,-1.8350391387939453
1767620483710142200,16.50314208984375,-0.14233160018920898,-0.6627888083457947,-1.8332066535949707
1767620483750253600,16.543253662109375,-0.01710422709584236,-0.5326744914054871,-1.9040669202804565
1767620483770346200,16.56334619140625,0.0659734457731247,-0.6023131608963013,-1.8332066535949707
1767620483790355700,16.583355712890626,0.004886921960860491,-0.6065891981124878,-1.7849482297897339
1767620483830471700,16.6234716796875,-0.192422553896904,-0.7776314616203308,-1.5503759384155273
1767620483870575900,16.663575927734374,-0.16798794269561768,-0.503963828086853,-1.2901474237442017
1767620483910680600,16.7036806640625,-0.18509216606616974,-0.655458390712738,-1.1301007270812988
1767620483950808000,16.74380810546875,-0.3439171314239502,-0.5418374538421631,-1.1007791757583618
1767620483990911000,16.783910888671876,-0.2974913716316223,-0.3787364661693573,-1.1313223838806152
1767620484031008000,16.824008056640626,-0.09529497474431992,-0.3066543638706207,-1.045190453529358
1767620484051101200,16.84410107421875,0.00855211354792118,-0.37690386176109314,-0.836885392665863
1767620484071115300,16.864115234375,-0.015271631069481373,-0.38667771220207214,-0.45753806829452515
1767620484111190300,16.904190185546874,-0.04153883829712868,-0.7757988572120667,0.8741481900215149
1767620484151301600,16.944301513671874,0.16859880089759827,-0.3396410644054413,1.5210545063018799
1767620484191387000,16.984386962890625,0.1765400618314743,-0.9327912330627441,2.9052751064300537
1767620484231480000,17.02447998046875,0.8747590184211731,-1.2553280591964722,3.3145549297332764
1767620484271569200,17.064569091796876,1.1820242404937744,-1.2357803583145142,2.598620653152466
1767620484311701000,17.104700927734374,1.302364706993103,-1.0971139669418335,2.6902506351470947
1767620484351799800,17.1447998046875,1.340238332748413,-2.331061840057373,2.9162707328796387
1767620484391897000,17.18489697265625,1.351233959197998,-2.3768765926361084,2.90649676322937
1767620484431982600,17.224982666015624,1.0403034687042236,-1.9272798299789429,2.506990909576416
1767620484472105500,17.26510546875,0.7428121566772461,-2.2510383129119873,2.186286687850952
1767620484512194800,17.30519482421875,0.4031710624694824,-1.6597208976745605,1.2406673431396484
1767620484552320800,17.34532080078125,0.4605923891067505,-1.207680583000183,0.7171558141708374
1767620484592397000,17.38539697265625,0.7141014933586121,-0.5088507533073425,-0.41233405470848083
1767620484632480300,17.425480224609377,0.8765916228294373,-0.656069278717041,-0.6548475623130798
1767620484672565000,17.46556494140625,0.9810495972633362,0.12950342893600464,-0.2675589919090271
1767620484712672300,17.50567236328125,0.09651670604944229,-0.4294382631778717,-1.0891727209091187
1767620484752746000,17.54574609375,0.513737678527832,1.2424999475479126,-2.3206770420074463
1767620484792823600,17.585823486328124,0.12950342893600464,0.5198463201522827,-1.9602665901184082
1767620484832896800,17.625896728515624,0.13988813757896423,1.7605136632919312,-2.5326473712921143
1767620484872983300,17.6659833984375,-0.21624629199504852,1.395827054977417,-2.4782803058624268
1767620484913076200,17.706076171875,-0.44776421785354614,0.19914206862449646,-2.136195659637451
1767620484953199000,17.74619921875,-0.45265114307403564,0.685390830039978,-2.445293664932251
1767620484973285600,17.76628564453125,-0.4795292317867279,0.8069530129432678,-2.5363125801086426
1767620484993287000,17.786286865234374,-0.455705463886261,0.3952298164367676,-2.2119431495666504
1767620485033391000,17.82639111328125,-0.33475416898727417,0.24373523890972137,-1.6224581003189087
1767620485073486300,17.866486328125,-0.40683624148368835,0.07696902006864548,-0.9822713136672974
1767620485113592800,17.9065927734375,-0.22479841113090515,0.6817256212234497,-0.636521577835083
1767620485153699300,17.94669921875,-0.16798794269561768,0.49785518646240234,-0.4642575979232788
1767620485193806300,17.986806396484376,-0.08002334833145142,0.12889257073402405,-0.504574716091156
1767620485233914000,18.0269140625,-0.1264491081237793,0.030543262138962746,-0.4954117238521576
1767620485274025700,18.067025634765624,-0.1411098688840866,0.18936823308467865,-0.4538728892803192
1767620485314136300,18.10713623046875,-0.02076941914856434,0.242513507604599,-0.22113321721553802
1767620485354208800,18.147208740234376,-0.15271630883216858,-0.0757472887635231,0.42271876335144043
1767620485394287900,18.187287841796874,0.08002334833145142,-0.40072759985923767,1.2651019096374512
1767620485434371600,18.22737158203125,0.07330382615327835,-0.6010913848876953,2.417804718017578
1767620485474460400,18.26746044921875,0.656680166721344,0.05497787147760391,3.402519464492798
1767620485514547500,18.30754736328125,0.9932668805122375,0.2590068578720093,2.7207937240600586
1767620485554638000,18.34763818359375,1.2620476484298706,-1.064738154411316,2.3542747497558594
1767620485594740200,18.387740234375,1.2577714920043945,-2.3994786739349365,2.944981336593628
1767620485634830000,18.427830078125,0.9004153609275818,-2.4245240688323975,3.082426071166992
1767620485674914000,18.4679140625,0.47708576917648315,-1.3811663389205933,2.7177395820617676
1767620485714998500,18.50799853515625,-0.01038470957428217,-1.32863187789917,2.0005836486816406
1767620485755126800,18.548126708984373,-0.08368854224681854,-1.007927656173706,1.4104878902435303
1767620485795218000,18.588218017578125,-0.025045474991202354,-0.19792033731937408,0.3439171314239502
1767620485835297800,18.6282978515625,0.10506882518529892,-0.24129177629947662,-0.656680166721344
1767620485875398000,18.66839794921875,0.313373863697052,-0.2370157092809677,-0.9034696817398071
1767620485915481600,18.708481689453127,0.5027421116828918,0.6682865619659424,-0.9578366875648499
1767620485955566600,18.748566650390625,-0.16982053220272064,0.04948008432984352,-1.2357803583145142
1767620485995656700,18.78865673828125,0.21380282938480377,1.1288789510726929,-2.197282314300537
1767620486035753000,18.8287529296875,-0.08735372871160507,1.1429288387298584,-2.3353378772735596
1767620486075849200,18.86884912109375,-0.16920967400074005,1.474017858505249,-2.422691583633423
1767620486115946200,18.9089462890625,-0.3084869384765625,1.6811012029647827,-2.395813465118408
1767620486156110600,18.949110595703125,-0.375071257352829,1.0305296182632446,-2.420248031616211
1767620486196192000,18.98919189453125,-0.46242499351501465,0.7079927921295166,-2.375654935836792
1767620486236278300,19.0292783203125,-0.46731191873550415,0.3683517575263977,-2.1282544136047363
1767620486276370700,19.06937060546875,-0.4080579876899719,0.13377949595451355,-1.5729780197143555
1767620486316469000,19.109468994140624,-0.4648684561252594,0.3286454975605011,-1.0696250200271606
1767620486356577300,19.149577392578124,-0.3390302062034607,0.5241223573684692,-0.6811147332191467
1767620486396696000,19.189696044921874,-0.3836233615875244,0.22663100063800812,-0.4905247986316681
1767620486436812800,19.229812744140624,-0.1459967941045761,-0.10384709388017654,-0.4740314185619354
1767620486476921300,19.26992138671875,-0.07208210229873657,-0.19914206862449646,-0.5589417219161987
1767620486516993800,19.309993896484375,0.1270599663257599,0.03481931984424591,-0.3139847218990326
1767620486557103400,19.350103271484375,-0.11667526513338089,0.02076941914856434,0.5247332453727722
1767620486597173200,19.39017333984375,0.152105450630188,-0.21991148591041565,1.299310326576233
1767620486637247700,19.430247802734375,0.25961771607398987,-0.39584067463874817,2.353052854537964
1767620486677324800,19.47032470703125,0.7562511563301086,0.13927727937698364,3.252246618270874
1767620486717437700,19.510437744140624,0.7745771408081055,0.6224716901779175,2.311514139175415
1767620486757505800,19.550505859375,0.9437867999076843,-0.7776314616203308,2.4239132404327393
1767620486797592000,19.590592041015626,1.1154398918151855,-1.8270978927612305,2.789210796356201
1767620486837668900,19.6306689453125,0.7452555894851685,-1.5467108488082886,2.7684412002563477
1767620486877740800,19.67074072265625,0.33475416898727417,-1.4611896276474,2.5033257007598877
1767620486917815600,19.710815673828126,-0.16310101747512817,-1.359786033630371,1.8777997493743896
1767620486957937700,19.750937744140625,-0.16982053220272064,-0.8258898258209229,1.32863187789917
1767620486998012400,19.791012451171873,-0.03176499158143997,-0.3543018400669098,0.5510004758834839
1767620487038095600,19.831095703125,0.15515977144241333,-0.07391469180583954,-0.2840523421764374
1767620487078183000,19.871182861328126,0.2168571650981903,-0.22052235901355743,-0.8063421249389648
1767620487118257400,19.91125732421875,0.5155702829360962,0.637132465839386,-0.36590829491615295
1767620487158326500,19.951326416015625,-0.18448130786418915,-0.031154127791523933,-1.2736539840698242
1767620487198411000,19.991410888671876,0.0708603709936142,0.6059783101081848,-1.7165313959121704
1767620487238487800,20.03148779296875,-0.013439035043120384,1.5864170789718628,-2.2375993728637695
1767620487278564400,20.071564453125,-0.21807889640331268,1.081842303276062,-2.213775634765625
1767620487318644700,20.111644775390626,-0.29504790902137756,1.6798794269561768,-2.3915374279022217
1767620487358730000,20.15172998046875,-0.4990769028663635,1.4037683010101318,-2.3011293411254883
1767620487398811600,20.191811767578123,-0.44654250144958496,1.1753047704696655,-2.3182334899902344
1767620487438903800,20.23190380859375,-0.43127086758613586,1.1362093687057495,-2.3738224506378174
1767620487478971100,20.27197119140625,-0.5088507533073425,0.7996225953102112,-1.852143406867981
1767620487519067600,20.312067626953127,-0.5345070958137512,0.37751471996307373,-1.2095131874084473
1767620487559170800,20.3521708984375,-0.31093040108680725,0.6102544069290161,-0.7971791625022888
1767620487599286500,20.39228662109375,-0.1820378452539444,0.8930850028991699,-0.5681046843528748
1767620487639392500,20.432392578125,-0.23457226157188416,0.4337143301963806,-0.44593164324760437
1767620487679514600,20.4725146484375,-0.2223549485206604,0.07208210229873657,-0.5772676467895508
1767620487719629000,20.512629150390627,-0.10567969083786011,0.01771509274840355,-0.7874053120613098
1767620487759728400,20.552728271484376,0.021991148591041565,-0.12889257073402405,-0.6023131608963013
1767620487799814400,20.592814453125,-0.31642818450927734,-0.26572638750076294,0.3640756905078888
1767620487839928000,20.632927978515625,-0.0757472887635231,-0.16004669666290283,1.4306464195251465
1767620487880016100,20.67301611328125,0.01710422709584236,-0.4086688458919525,2.475836753845215
1767620487920145000,20.713144775390624,0.6939429044723511,0.09773843735456467,3.459329843521118
1767620487960242000,20.753241943359374,1.19607412815094,0.9761626720428467,2.58457088470459
1767620488000324600,20.79332470703125,1.0293079614639282,-0.9669997096061707,2.277916431427002
1767620488040423200,20.833423095703125,1.217454433441162,-2.7788259983062744,3.103806257247925
1767620488080521500,20.873521484375,0.7177666425704956,-2.2174408435821533,2.9663615226745605
1767620488120606000,20.91360595703125,0.5668829679489136,-1.643227458000183,2.8380799293518066
1767620488160724700,20.953724853515624,-0.10873401165008545,-1.4984524250030518,2.029905319213867
1767620488200807200,20.99380712890625,-0.19364428520202637,-0.9059131741523743,1.386053204536438
1767620488240889900,21.033889892578124,-0.003054326167330146,-0.4105014503002167,0.4343251883983612
1767620488280967000,21.073966796875,0.12278391420841217,-0.27122417092323303,-0.5791002511978149
1767620488321046800,21.114046875,0.32498031854629517,0.08674286305904388,-0.5583308339118958
1767620488361123300,21.154123291015626,-0.1966986060142517,-0.00366519158706069,-1.1227703094482422
1767620488401204200,21.194204345703124,0.02382374368607998,0.40744712948799133,-1.6786576509475708
1767620488441279200,21.234279296875,0.12828169763088226,1.3658946752548218,-2.093435287475586
1767620488481390600,21.274390625,-0.2730567753314972,1.7495180368423462,-2.41719388961792
1767620488521467100,21.314467041015625,-0.3017674386501312,1.7794504165649414,-2.6206119060516357
1767620488561533700,21.35453369140625,-0.21563543379306793,1.3164145946502686,-2.5173757076263428
1767620488601606700,21.394606689453123,-0.3995058834552765,0.9346238374710083,-2.422691583633423
1767620488641725000,21.434724853515625,-0.44837507605552673,1.1239920854568481,-2.504547595977783
1767620488681804000,21.474803955078126,-0.5149593949317932,0.6969972252845764,-1.8203784227371216
1767620488721896700,21.514896728515627,-0.4538728892803192,0.4612032473087311,-1.3280210494995117
1767620488761994500,21.554994384765624,-0.38240164518356323,0.5149593949317932,-0.8100073337554932
1767620488802089200,21.595089111328125,-0.1618792861700058,0.9266825914382935,-0.313373863697052
1767620488842191400,21.63519140625,-0.2064724564552307,0.34574973583221436,-0.23029619455337524
1767620488882302000,21.675302001953124,-0.06414084881544113,-0.17043140530586243,-0.5400048494338989
1767620488922398000,21.71539794921875,0.07880161702632904,-0.04214970022439957,-0.5821545720100403
1767620488962474200,21.75547412109375,-0.192422553896904,0.39217549562454224,-0.20891591906547546
1767620489002553900,21.795553955078127,-0.17043140530586243,-0.17409659922122955,0.8655960559844971
1767620489042661400,21.835661376953126,0.010995574295520782,-0.5992587804794312,1.6071864366531372
1767620489082736000,21.875736083984375,0.1563815027475357,-0.7617489695549011,3.048828363418579
1767620489122815700,21.915815673828124,0.856433093547821,0.9376781582832336,3.034167766571045
1767620489142897200,21.935897216796874,1.0543533563613892,1.1484266519546509,2.071444034576416
1767620489162890800,21.955890869140624,1.0140362977981567,0.0403171069920063,1.6316211223602295
1767620489202991900,21.995991943359375,1.217454433441162,-2.5216517448425293,2.523484230041504
1767620489243079700,22.03607958984375,1.197295904159546,-2.4886651039123535,2.889392614364624
1767620489283186700,22.076186767578125,0.7415903806686401,-1.5039502382278442,2.725069761276245
1767620489323265300,22.116265380859375,0.054367005825042725,-1.5992451906204224,2.484999895095825
1767620489363341800,22.156341796875,-0.21074850857257843,-1.3744467496871948,1.855197787284851
1767620489403415800,22.196415771484375,-0.13255776464939117,-0.7709119319915771,1.243721604347229
1767620489443497700,22.236497802734377,0.09529497474431992,-0.5167919993400574,0.5668829679489136
1767620489483576800,22.276576904296874,0.27611109614372253,-0.1875356286764145,-0.47342056035995483
1767620489523660500,22.31666064453125,0.3854559659957886,-0.16982053220272064,-0.9969320893287659
1767620489563736300,22.356736328125,0.5607742667198181,0.3182607889175415,-0.2070833146572113
1767620489603816000,22.39681591796875,0.10690141469240189,-0.11850785464048386,-1.0335839986801147
1767620489643892700,22.436892822265627,-0.4642575979232788,0.16920967400074005,-1.3946053981781006
1767620489683976000,22.476975830078125,-0.1111774742603302,1.4269812107086182,-1.8967366218566895
1767620489724057300,22.517057373046875,-0.2791654169559479,1.166752576828003,-2.309070587158203
1767620489764145200,22.557145263671874,-0.02687807008624077,1.822821855545044,-2.5118777751922607
1767620489804244200,22.597244140625,-0.04214970022439957,1.0690141916275024,-2.415361166000366
1767620489824340700,22.6173408203125,-0.06291911751031876,0.6004805564880371,-2.3933699131011963
1767620489844355300,22.637355224609376,-0.24373523890972137,0.4856378734111786,-2.375654935836792
1767620489864438000,22.65743798828125,-0.46731191873550415,0.42210787534713745,-2.3542747497558594
1767620489884432100,22.67743212890625,-0.5845980644226074,0.4899139404296875,-2.2211060523986816
1767620489924533500,22.717533447265627,-0.4502076804637909,0.7238753437995911,-1.8698585033416748
1767620489964620500,22.75762060546875,-0.30482175946235657,0.7935139536857605,-1.3237450122833252
1767620490004714000,22.7977138671875,-0.20830504596233368,0.4966334402561188,-0.7751879692077637
1767620490044814600,22.837814697265625,-0.09834930300712585,0.7513642311096191,-0.4740314185619354
1767620490084921300,22.87792138671875,-0.1765400618314743,0.5662720799446106,-0.3781255781650543
1767620490105001000,22.8980009765625,-0.2370157092809677,0.31459560990333557,-0.41661009192466736
1767620490125011000,22.918010986328124,-0.19853121042251587,0.08429940044879913,-0.44287729263305664
1767620490165112300,22.9581123046875,-0.18325957655906677,0.06108652427792549,-0.5320636034011841
1767620490205216500,22.998216552734377,-0.16737708449363708,0.48685958981513977,-0.40622538328170776
1767620490245321200,23.0383212890625,-0.0659734457731247,0.7415903806686401,-0.12217304855585098
1767620490265401600,23.058401611328126,-0.14844025671482086,0.7134906053543091,-0.01771509274840355
1767620490285395700,23.078395751953124,-0.23457226157188416,0.42577308416366577,0.25534167885780334
1767620490325504800,23.1185048828125,0.024434609338641167,-0.2736676335334778,0.43799036741256714
1767620490365578000,23.158577880859376,0.05619960278272629,-0.836885392665863,1.9712620973587036
1767620490405654000,23.198654052734376,0.6285803318023682,0.01466076634824276,3.1526756286621094
1767620490445735200,23.238735107421874,1.0971139669418335,1.2486085891723633,2.3438899517059326
1767620490485799400,23.27879931640625,0.8197811841964722,-0.38667771220207214,2.020742177963257
1767620490525870300,23.318870361328123,0.8527678847312927,-2.2986860275268555,2.8545732498168945
1767620490565968100,23.358968017578125,0.9926560521125793,-1.674992561340332,2.5387558937072754
1767620490606039800,23.399039794921876,0.788627028465271,-1.845423936843872,2.758056640625
1767620490646151000,23.43915087890625,0.10018189996480942,-1.4660766124725342,2.188730239868164
1767620490686239000,23.479239013671876,-0.2626720666885376,-1.0946705341339111,1.6285667419433594
1767620490726320000,23.519320068359374,-0.2064724564552307,-0.42699480056762695,0.8802568316459656
1767620490766398700,23.559398681640626,-0.04092797264456749,-0.17898350954055786,-0.02076941914856434
1767620490786513000,23.579512939453124,0.11239920556545258,-0.2974913716316223,-0.5198463201522827
1767620490806509300,23.59950927734375,0.16920967400074005,-0.5369505286216736,-0.817948579788208
1767620490846583300,23.639583251953123,0.40133845806121826,0.11301007121801376,-0.7183775305747986
1767620490886690000,23.67968994140625,-0.07269296050071716,-0.24678955972194672,-0.08491026610136032
1767620490926767000,23.71976708984375,-0.012217304669320583,0.014049900695681572,-1.7647897005081177
1767620490966853600,23.759853515625,-0.03237585723400116,0.9920451641082764,-1.8741345405578613
1767620491006933000,23.79993310546875,-0.1722639948129654,0.6420193910598755,-2.083050489425659
1767620491027014000,23.820013916015625,-0.06108652427792549,1.1618657112121582,-2.361604928970337
1767620491047021300,23.840021240234375,-0.060475658625364304,1.6120734214782715,-2.524095296859741
1767620491067107600,23.860107666015626,-0.025656340643763542,1.4660766124725342,-2.4489588737487793
1767620491087112700,23.88011279296875,-0.0006108652451075613,1.0739010572433472,-2.3573288917541504
1767620491127199000,23.920198974609374,-0.03726277872920036,0.5766568183898926,-2.160630464553833
1767620491167274000,23.96027392578125,-0.4538728892803192,0.8991936445236206,-2.2241604328155518
1767620491207351800,24.000351806640627,-0.33536502718925476,0.4593706727027893,-1.7318029403686523
1767620491247519200,24.040519287109376,-0.3170390725135803,0.2974913716316223,-1.2046263217926025
1767620491287624700,24.080624755859375,-0.29138273000717163,0.49357911944389343,-0.8668177723884583
1767620491327724800,24.120724853515625,-0.11972958594560623,0.7055493593215942,-0.5106833577156067
1767620491367812900,24.160812744140625,-0.26939156651496887,0.34025195240974426,-0.32009339332580566
1767620491407912700,24.20091259765625,-0.24923302233219147,-0.02626720629632473,-0.4593706727027893
1767620491448022500,24.2410224609375,-0.15332718193531036,-0.04214970022439957,-0.47769662737846375
1767620491488128500,24.28112841796875,-0.19425514340400696,0.12950342893600464,-0.4392121136188507
1767620491528238000,24.321238037109374,-0.24373523890972137,0.24495697021484375,-0.4489859640598297
1767620491568341500,24.361341552734373,-0.16249015927314758,0.21319197118282318,-0.46547931432724
1767620491608454400,24.401454345703126,-0.1215621829032898,-0.8069530129432678,0.051312681287527084
1767620491648533200,24.441533203125,0.12828169763088226,-0.675616979598999,0.675006091594696
1767620491688633600,24.481633544921873,0.07147123664617538,-0.7024950385093689,2.364659309387207
1767620491708711400,24.50171142578125,0.3878994286060333,-0.6951646208763123,3.411682367324829
1767620491728703700,24.521703857421876,0.7739662528038025,-0.004886921960860491,3.732386589050293
1767620491768812000,24.56181201171875,1.216843605041504,-0.08185594528913498,2.043955087661743
1767620491808881000,24.601880859375,1.6389514207839966,-1.9529361724853516,2.1007654666900635
1767620491848991500,24.641991455078124,1.8197675943374634,-3.7317757606506348,2.213164806365967
1767620491889103000,24.68210302734375,2.083050489425659,-3.2314772605895996,2.596788167953491
1767620491929192700,24.722192626953124,1.7037031650543213,-3.5998289585113525,2.7366762161254883
1767620491969290500,24.76229052734375,1.2705997228622437,-3.2895092964172363,2.539977788925171
1767620492009383700,24.8023837890625,1.2315043210983276,-2.920546770095825,2.0415115356445312
1767620492049470700,24.842470703125,1.4398094415664673,-2.2773056030273438,1.3145819902420044
1767620492089593600,24.882593505859376,1.4648548364639282,-1.6859880685806274,0.6762278079986572
1767620492109682400,24.902682373046876,1.4611896276474,-1.4831807613372803,0.41661009192466736
1767620492129690600,24.922690673828125,1.4587461948394775,-1.2834278345108032,0.2015855312347412
1767620492169798700,24.962798583984377,1.547932505607605,-1.5448782444000244,-0.26022860407829285
1767620492209908000,25.002907958984373,1.6927075386047363,-1.2565498352050781,-0.8503243923187256
1767620492250026200,25.043026123046875,1.7067575454711914,-0.6023131608963013,-0.769690215587616
1767620492290105900,25.08310595703125,1.2333369255065918,0.06902777403593063,-0.21319197118282318
1767620492330217500,25.123217529296873,0.2021963894367218,0.3280346393585205,-0.5674937963485718
1767620492370308000,25.16330810546875,0.2577851414680481,-0.2480112910270691,-0.9731083512306213
1767620492410385200,25.20338525390625,0.294437050819397,-0.0403171069920063,-1.4214833974838257
1767620492450477300,25.243477294921874,-0.28099802136421204,0.4001167416572571,-1.4886785745620728
1767620492470567200,25.263567138671874,-0.37201693654060364,0.31031954288482666,-1.5644259452819824
1767620492490580700,25.283580810546876,-0.5656611919403076,-0.014049900695681572,-1.6658295392990112
1767620492530691300,25.32369140625,-0.7250970602035522,-0.8051204085350037,-1.5949691534042358
1767620492570794200,25.363794189453124,-0.11911872029304504,-1.8209892511367798,-1.6811012029647827
1767620492610894800,25.403894775390626,0.16310101747512817,-2.3744332790374756,-1.6285667419433594
1767620492650994200,25.443994140625,0.2535090744495392,-2.861903667449951,-1.3310753107070923
1767620492691088600,25.484088623046876,-0.09407325088977814,-2.7904324531555176,-1.1355985403060913
1767620492731204000,25.5242041015625,-0.12461651116609573,-2.4691174030303955,-0.7379252314567566
1767620492771297800,25.5642978515625,-0.13988813757896423,-2.1056525707244873,-0.5119050741195679
1767620492811401500,25.6044013671875,-0.021991148591041565,-1.8777997493743896,-0.19486601650714874
1767620492851511600,25.644511474609374,0.10323622822761536,-1.8026633262634277,-0.16004669666290283
1767620492891616000,25.684615966796876,0.12095131725072861,-1.9352210760116577,0.16737708449363708
1767620492931707400,25.724707275390625,0.021380282938480377,-2.193617105484009,0.6908885836601257
1767620492971802600,25.764802734375,0.015271631069481373,-1.8784105777740479,1.2596040964126587
1767620493011896300,25.804896240234374,0.060475658625364304,-1.7470746040344238,2.163073778152466
1767620493051986200,25.844986083984374,0.43127086758613586,-1.8374826908111572,2.8374691009521484
1767620493092087000,25.885087158203124,0.7269296646118164,-1.5424346923828125,3.4917056560516357
1767620493132172500,25.925172607421874,1.3432927131652832,-1.470963478088379,2.869844913482666
1767620493172247000,25.9652470703125,2.0781636238098145,-1.359175205230713,1.852143406867981
1767620493212340200,26.00534033203125,2.442239284515381,-1.217454433441162,0.8484918475151062
1767620493232421600,26.025421630859373,2.3518311977386475,-0.9456194043159485,0.53328537940979
1767620493252417500,26.04541748046875,2.0952677726745605,-0.7183775305747986,0.26145032048225403
1767620493292527600,26.085527587890624,1.3200798034667969,-1.0580185651779175,0.00733038317412138
1767620493332616200,26.1256162109375,0.7825183868408203,-1.4410310983657837,-0.23640485107898712
1767620493352694800,26.14569482421875,0.5876523852348328,-1.2467759847640991,-0.40072759985923767
1767620493372689700,26.165689697265623,0.36713001132011414,-1.0317513942718506,-0.4966334402561188
1767620493412763000,26.205762939453123,0.015271631069481373,-0.484416127204895,-0.6737843751907349
1767620493432846300,26.225846435546874,0.02076941914856434,-0.2742784917354584,-0.9456194043159485
1767620493452846800,26.245846923828125,0.11178833991289139,-0.11911872029304504,-1.2864822149276733
1767620493492917500,26.28591748046875,0.25961771607398987,0.5271766781806946,-1.433700680732727
1767620493533000400,26.32600048828125,0.2577851414680481,-0.3029891550540924,-0.988990843296051
1767620493573096200,26.36609619140625,0.16004669666290283,-0.7654141783714294,-1.006095051765442
1767620493613196300,26.4061962890625,0.03176499158143997,-0.45142942667007446,-0.9816604256629944
1767620493653296400,26.44629638671875,-0.2681698501110077,0.08185594528913498,-0.5393940210342407
1767620493693421000,26.486421142578124,-0.4990769028663635,0.5662720799446106,-0.3952298164367676
1767620493733511700,26.52651171875,-0.2718350291252136,0.3787364661693573,-0.40683624148368835
1767620493773611800,26.56661181640625,0.04642575979232788,-0.37140607833862305,-0.2791654169559479
1767620493793691100,26.586691162109375,0.19914206862449646,-0.1869247704744339,0.15027284622192383
1767620493813691100,26.606691162109374,0.2883284091949463,-0.31581732630729675,0.8393288254737854
1767620493853809200,26.64680908203125,0.17959438264369965,1.0616837739944458,0.22907446324825287
1767620493893889500,26.6868896484375,-0.7128797173500061,-0.5326744914054871,0.8142833709716797
1767620493933973200,26.72697314453125,0.12950342893600464,0.10323622822761536,-0.7189884185791016
1767620493974046000,26.7670458984375,0.2382374405860901,-0.30543261766433716,-1.0421360731124878
1767620494014154000,26.807154052734376,-0.13439035415649414,-0.13072516024112701,-1.1081095933914185
1767620494054254600,26.847254638671874,-0.3182607889175415,-0.13255776464939117,-0.9529497623443604
1767620494094362400,26.8873623046875,-0.24984388053417206,-0.12400564551353455,-0.7580837607383728
1767620494134462500,26.92746240234375,-0.09407325088977814,-0.08979719132184982,-0.3781255781650543
1767620494174557700,26.9675576171875,0.01160643994808197,-0.06414084881544113,0.010995574295520782
1767620494214652400,27.00765234375,0.04337143152952194,0.20402899384498596,0.1466076523065567
1767620494254739500,27.047739501953124,0.059864792972803116,-0.15332718193531036,0.6346889734268188
1767620494274832100,27.06783203125,0.23335053026676178,-0.26633724570274353,1.0494664907455444
1767620494294844200,27.08784423828125,0.2577851414680481,-0.1313360333442688,0.9346238374710083
1767620494334933000,27.12793310546875,0.16982053220272064,0.26083946228027344,0.9095783233642578
1767620494355011000,27.148010986328124,0.20036379992961884,-0.06352998316287994,1.0018190145492554
1767620494375019800,27.168019775390626,0.22846360504627228,-0.13439035415649414,1.014647126197815
1767620494395115800,27.18811572265625,0.15393804013729095,-0.22418753802776337,0.7849618196487427
1767620494415115800,27.20811572265625,0.0024434609804302454,0.17959438264369965,0.7043276429176331
1767620494455194000,27.248194091796876,-0.35613444447517395,0.3139847218990326,0.8222246170043945
1767620494495301600,27.288301513671875,-0.18570303916931152,0.44837507605552673,1.5754214525222778
1767620494535377400,27.32837744140625,0.36224308609962463,-0.012217304669320583,2.7812695503234863
1767620494575447300,27.368447265625,0.79840087890625,-0.8637634515762329,2.8747317790985107
1767620494615600000,27.40860009765625,0.9517280459403992,-0.6798930168151855,1.7440202236175537
1767620494655684000,27.44868408203125,-0.014049900695681572,-0.41172316670417786,0.3219259977340698
1767620494695758000,27.488758056640624,0.6780604124069214,-0.8124507665634155,-0.38606682419776917
1767620494735825400,27.528825439453126,0.5839871764183044,-0.09407325088977814,-1.1191051006317139
1767620494775899000,27.56889892578125,-0.05925392732024193,0.2431243658065796,-1.2705997228622437
1767620494815998500,27.60899853515625,-0.38728857040405273,0.48258355259895325,-1.709811806678772
1767620494856069400,27.6490693359375,-0.7153232097625732,0.24617868661880493,-2.0109684467315674
1767620494896182800,27.689182861328124,-0.7324274182319641,0.33719760179519653,-2.149634838104248
1767620494936257800,27.7292578125,-0.5943718552589417,0.9071348905563354,-1.5778648853302002
1767620494976355800,27.76935595703125,-0.03726277872920036,0.3677408695220947,-0.7116580009460449
1767620495016459800,27.809459716796876,0.17348572611808777,0.37140607833862305,-0.32498031854629517
1767620495056574500,27.849574462890626,0.4453207552433014,0.00366519158706069,0.17959438264369965
1767620495096658200,27.889658203125,0.025045474991202354,0.9162978529930115,0.2779437005519867
1767620495136741400,27.929741455078126,0.2021963894367218,-0.7935139536857605,1.284038782119751
1767620495176828000,27.969827880859373,0.17592918872833252,0.817337691783905,1.930334210395813
1767620495216947200,28.009947265625,-0.006108652334660292,1.1575896739959717,-0.8888089060783386
1767620495257042000,28.0500419921875,0.10812314599752426,-0.2687807083129883,-0.6811147332191467
1767620495297165000,28.0901650390625,-0.11362093687057495,-0.6621779203414917,-1.094059705734253
1767620495337249000,28.1302490234375,-0.1313360333442688,-0.578489363193512,-1.2565498352050781
1767620495357334000,28.150333984375,-0.18448130786418915,-0.6145304441452026,-1.1496484279632568
1767620495377342000,28.170342041015626,-0.19425514340400696,-0.42271876335144043,-1.0983357429504395
1767620495417410300,28.210410400390625,-0.1875356286764145,-0.2064724564552307,-0.5650503635406494
1767620495457484000,28.250484130859373,-0.03298672288656235,-0.2926044464111328,0.152105450630188
1767620495497557800,28.290557861328125,-0.11545353382825851,0.1966986060142517,0.5094616413116455
1767620495537674000,28.330674072265627,0.0354301854968071,0.7617489695549011,0.6927211880683899
1767620495577763000,28.37076318359375,0.25534167885780334,0.0012217304902151227,0.970054030418396
1767620495617861600,28.410861572265624,0.15393804013729095,-0.11545353382825851,0.5155702829360962
1767620495657942000,28.45094189453125,0.042760565876960754,0.28466320037841797,0.3072652220726013
1767620495678027300,28.47102734375,0.05253441259264946,0.15454891324043274,0.45631635189056396
1767620495698019000,28.49101904296875,0.23518311977386475,0.0659734457731247,0.797789990901947
1767620495738092000,28.531092041015626,0.5815436840057373,-0.4080579876899719,2.1087067127227783
1767620495778197800,28.57119775390625,0.6682865619659424,-0.4550946056842804,2.700024366378784
1767620495818277000,28.611277099609374,0.6701191663742065,-0.21563543379306793,1.938886284828186
1767620495838389500,28.631389404296876,0.3237585723400116,-0.21868975460529327,1.2272282838821411
1767620495858392600,28.651392578125,0.09651670604944229,-0.46242499351501465,0.5510004758834839
1767620495898476800,28.691476806640626,0.11911872029304504,-0.6304129362106323,-0.33536502718925476
1767620495938565600,28.731565673828126,0.024434609338641167,-0.46242499351501465,-0.7281513810157776
1767620495978659600,28.77165966796875,-0.2571742534637451,-0.3933972120285034,-1.2528846263885498
1767620496018737000,28.81173681640625,-0.5729916095733643,0.06902777403593063,-1.7996090650558472
1767620496058815500,28.8518154296875,-0.8924741148948669,0.3787364661693573,-2.2852468490600586
1767620496098930700,28.8919306640625,-0.5338962078094482,0.20036379992961884,-2.213775634765625
1767620496139013600,28.932013671875,-0.09162978827953339,-0.19425514340400696,-1.0891727209091187
1767620496179099100,28.97209912109375,0.2174680233001709,0.2730567753314972,-0.3494149148464203
1767620496219193900,29.01219384765625,0.3176499307155609,0.26633724570274353,-0.323147714138031
1767620496259295500,29.05229541015625,0.3433062732219696,-0.0507018156349659,0.5143485069274902
1767620496299378000,29.0923779296875,-0.018325956538319588,0.921795666217804,0.5571091175079346
1767620496339503400,29.13250341796875,-0.13744467496871948,0.23518311977386475,1.1661417484283447
1767620496379585300,29.172585205078125,-0.13316862285137177,0.1661553531885147,0.6120869517326355
1767620496419702300,29.212702392578127,-0.24678955972194672,0.3219259977340698,-0.3781255781650543
1767620496459783200,29.252783203125,-0.001832595793530345,0.2541199326515198,-0.9847147464752197
1767620496499900200,29.292900146484374,-0.27061331272125244,-0.03176499158143997,-1.0781772136688232
1767620496539980800,29.332980712890624,-0.16371189057826996,-0.025656340643763542,-0.8723155856132507
1767620496560061400,29.3530615234375,-0.10873401165008545,-0.11056660860776901,-0.7238753437995911
1767620496580063000,29.37306298828125,0.0024434609804302454,-0.14844025671482086,-0.44226643443107605
1767620496600146200,29.393146240234376,0.16920967400074005,-0.04886921867728233,-0.21135938167572021
1767620496620144600,29.41314453125,0.2480112910270691,-0.05314527451992035,0.03481931984424591
1767620496660257300,29.45325732421875,0.3090978264808655,-0.4245513379573822,0.7867944240570068
1767620496700347600,29.49334765625,-0.05619960278272629,0.684779942035675,0.7000515460968018
1767620496740426000,29.533426025390625,-0.13439035415649414,0.5198463201522827,0.45204028487205505
1767620496780512500,29.573512451171876,0.19853121042251587,0.18875735998153687,0.7354817390441895
1767620496820603000,29.613602783203124,0.29016098380088806,0.48747047781944275,1.6279559135437012
1767620496860682800,29.653682861328125,0.7171558141708374,0.08124507963657379,3.3200526237487793
1767620496900792600,29.69379248046875,0.5247332453727722,-0.6230825781822205,3.0421090126037598
1767620496940876000,29.7338759765625,0.45753806829452515,-0.24190263450145721,1.5638149976730347
1767620496980946700,29.77394677734375,0.0659734457731247,-0.17348572611808777,-0.056810468435287476
1767620497021023700,29.814023681640624,0.32559117674827576,-0.494189977645874,-0.7568620443344116
1767620497041103000,29.83410302734375,0.2528982162475586,-0.36651915311813354,-1.264491081237793
1767620497061098200,29.85409814453125,0.039095375686883926,-0.3139847218990326,-1.7061465978622437
1767620497101188600,29.894188720703124,-0.5723807215690613,-0.2987131178379059,-2.3347270488739014
1767620497141280800,29.93428076171875,-1.0317513942718506,-0.24617868661880493,-2.5314254760742188
1767620497181369900,29.974369873046875,-0.7391469478607178,-0.23273965716362,-2.643824815750122
1767620497221493000,30.014492919921874,-0.2919935882091522,-0.8203920125961304,-1.7263051271438599
1767620497241581000,30.0345810546875,0.01771509274840355,-0.788016140460968,-0.8833111524581909
1767620497261582600,30.05458251953125,0.32498031854629517,0.21991148591041565,-0.5345070958137512
1767620497301709300,30.094709228515626,0.41599923372268677,-0.00427605677396059,0.3885102868080139
1767620497341788700,30.13478857421875,0.36713001132011414,1.3738359212875366,1.6517796516418457
1767620497381910500,30.17491064453125,0.05497787147760391,0.9382890462875366,1.2296717166900635
1767620497401996800,30.194996826171874,0.2583959996700287,1.2137892246246338,1.5503759384155273
1767620497422004500,30.21500439453125,-0.0507018156349659,0.06291911751031876,1.4404202699661255
1767620497462087400,30.25508740234375,-0.0959058403968811,0.43676865100860596,-0.6047565937042236
1767620497502164700,30.295164794921874,0.19853121042251587,-0.018325956538319588,-0.8820894360542297
1767620497542250800,30.335250732421876,-0.22968533635139465,-0.3995058834552765,-0.9572258591651917
1767620497582333400,30.37533349609375,-0.1618792861700058,-0.3127630054950714,-1.0726794004440308
1767620497622441000,30.41544091796875,-0.11972958594560623,-0.7122688889503479,-0.6383541822433472
1767620497662523100,30.455523193359376,-0.04948008432984352,-0.28955012559890747,0.10751228034496307
1767620497702595800,30.495595947265624,-0.17470745742321014,0.34025195240974426,0.646295428276062
1767620497742668000,30.53566796875,-0.0012217304902151227,0.15332718193531036,0.6829473376274109
1767620497782780700,30.57578076171875,0.07635815441608429,-0.15332718193531036,0.7037167549133301
1767620497822866000,30.615865966796875,-0.12095131725072861,0.41172316670417786,0.6230825781822205
1767620497862936800,30.655936767578126,0.3066543638706207,0.3078760802745819,1.141707181930542
1767620497903004400,30.69600439453125,0.789237916469574,-0.16737708449363708,1.7580702304840088
1767620497943105000,30.73610498046875,1.1099421977996826,-0.15882496535778046,2.1349740028381348
1767620497983174400,30.77617431640625,0.6395758986473083,0.23273965716362,1.1856894493103027
1767620498003251700,30.796251708984375,0.3903428912162781,-0.2070833146572113,0.93095862865448
1767620498023247600,30.81624755859375,0.523511528968811,-0.740368664264679,0.7666358947753906
1767620498063320300,30.8563203125,0.028099801391363144,-0.6914994716644287,-0.1765400618314743
1767620498103401000,30.89640087890625,-0.24068090319633484,-0.8057312369346619,-0.48808133602142334
1767620498143476000,30.93647607421875,-0.6298020482063293,-0.37690386176109314,-0.9950994849205017
1767620498183580200,30.976580078125,-0.7336491346359253,0.27977627515792847,-1.673770785331726
1767620498223656200,31.01665625,-0.8155050873756409,0.8961393237113953,-2.337170362472534
1767620498263732200,31.056732177734375,-0.45204028487205505,0.1258382350206375,-2.334116220474243
1767620498303791000,31.096791015625,-0.030543262138962746,0.01710422709584236,-1.5375478267669678
1767620498343868700,31.13686865234375,0.1007927656173706,-0.04703662544488907,-0.4031710624694824
1767620498383947800,31.17694775390625,0.24373523890972137,0.4043927788734436,-0.0403171069920063
1767620498424031700,31.21703173828125,0.3078760802745819,0.3500257730484009,0.09712757170200348
1767620498464103700,31.257103759765624,0.22479841113090515,0.6682865619659424,1.2357803583145142
1767620498504178700,31.2971787109375,0.08918632566928864,0.9767735004425049,0.8240572214126587
1767620498544255700,31.337255859375,0.13744467496871948,0.66584312915802,2.006692409515381
1767620498584338000,31.377337890625,0.048258353024721146,0.24923302233219147,0.3695734739303589
1767620498624423200,31.417423095703125,-0.1411098688840866,0.34574973583221436,-0.45204028487205505
1767620498644539600,31.43753955078125,0.17837265133857727,0.06841690838336945,-0.7727445363998413
1767620498664536000,31.4575361328125,0.039095375686883926,-0.303600013256073,-0.9621127843856812
1767620498704609800,31.49760986328125,-0.17592918872833252,-0.21991148591041565,-1.2217304706573486
1767620498724689400,31.517689453125,-0.19914206862449646,-0.39156460762023926,-1.0800096988677979
1767620498744673300,31.53767333984375,-0.11850785464048386,-0.5057964324951172,-1.0231993198394775
1767620498784755500,31.57775537109375,-0.11911872029304504,-0.3695734739303589,-0.6389650702476501
1767620498824865000,31.617864990234374,-0.12950342893600464,-0.028099801391363144,0.13500121235847473
1767620498864943400,31.657943359375,-0.0354301854968071,0.46181413531303406,0.6902777552604675
1767620498905042400,31.69804248046875,0.13439035415649414,-0.2620611786842346,0.7312057018280029
1767620498945114000,31.738114013671876,0.2981022298336029,-0.3683517575263977,0.8552113175392151
1767620498985206300,31.778206298828124,0.1007927656173706,0.4795292317867279,0.7672467231750488
1767620499025292800,31.818292724609375,-0.13866640627384186,0.637132465839386,0.9810495972633362
1767620499065400800,31.85840087890625,0.19120082259178162,-0.22418753802776337,1.8313740491867065
1767620499105471700,31.8984716796875,0.6047565937042236,-0.675006091594696,2.677422285079956
1767620499145539600,31.93853955078125,0.6255260109901428,-0.16982053220272064,1.8784105777740479
1767620499185616100,31.9786162109375,0.24862214922904968,-0.6053674817085266,0.8399397134780884
1767620499225702700,32.01870263671875,0.18509216606616974,-0.5919284224510193,-0.26145032048225403
1767620499265799400,32.05879931640625,0.016493361443281174,-0.5668829679489136,-0.8399397134780884
1767620499305876200,32.098876220703126,-0.3927863538265228,-0.3530801236629486,-1.1264355182647705
1767620499345946000,32.13894604492187,-0.7250970602035522,0.17898350954055786,-1.6566665172576904
1767620499386014000,32.17901391601563,-0.7385360598564148,0.5070181488990784,-2.157576084136963
1767620499426078200,32.219078125,-0.46364670991897583,0.24068090319633484,-2.288912057876587
1767620499466152400,32.25915234375,-0.44715335965156555,0.11911872029304504,-1.3365731239318848
1767620499506234600,32.29923461914063,-0.1111774742603302,0.5723807215690613,-0.6285803318023682
1767620499546330600,32.33933056640625,0.06291911751031876,0.6328563690185547,-0.31154128909111023
1767620499586410500,32.379410400390626,0.23396138846874237,0.09285151958465576,-0.3854559659957886
1767620499626496800,32.41949682617187,0.46242499351501465,0.00366519158706069,-0.2816088795661926
1767620499666573300,32.4595732421875,0.21563543379306793,0.32131510972976685,0.9144652485847473
1767620499706681000,32.49968115234375,-0.16982053220272064,0.5919284224510193,0.8454375267028809
1767620499746750700,32.53975073242187,-0.07269296050071716,1.387274980545044,1.5534303188323975
1767620499786853600,32.579853515625,0.29138273000717163,0.04581489413976669,0.8607091307640076
1767620499826936300,32.61993627929687,-0.06169738993048668,0.2577851414680481,-0.2571742534637451
1767620499867046000,32.6600458984375,0.32620203495025635,0.009773843921720982,-0.5943718552589417
1767620499907113200,32.70011328125,-0.21502456068992615,-0.32131510972976685,-0.7238753437995911
1767620499947196700,32.74019677734375,-0.20402899384498596,-0.5736024379730225,-0.7739662528038025
1767620499987302100,32.78030224609375,-0.18814650177955627,-0.5998696684837341,-0.6743952035903931
1767620500007390200,32.80039013671875,-0.21013765037059784,-0.6340781450271606,-0.48197266459465027
1767620500027396000,32.82039599609375,-0.15027284622192383,-0.5998696684837341,-0.2028072625398636
1767620500067500500,32.86050048828125,-0.18875735998153687,0.2938261926174164,0.5088507533073425
1767620500107609000,32.90060913085937,-0.11545353382825851,0.3952298164367676,0.9651671051979065
1767620500127688700,32.920688720703126,0.05314527451992035,0.29626965522766113,0.8381071090698242
1767620500147688200,32.94068823242188,0.1258382350206375,0.3182607889175415,0.8197811841964722
1767620500187785700,32.98078564453125,0.20891591906547546,-0.29138273000717163,0.8130616545677185
1767620500227862300,33.0208623046875,0.11362093687057495,0.13377949595451355,0.7751879692077637
1767620500267944700,33.06094482421875,-0.039095375686883926,0.6346889734268188,0.720820963382721
1767620500308035600,33.10103564453125,0.1618792861700058,0.32681289315223694,1.5039502382278442
1767620500348142800,33.14114282226563,0.49785518646240234,-0.42577308416366577,2.3157901763916016
1767620500388215300,33.18121533203125,0.6096435189247131,-0.37568211555480957,2.2046127319335938
1767620500428293400,33.22129345703125,-0.4196644127368927,0.05619960278272629,1.19607412815094
1767620500468371700,33.261371826171874,-0.5338962078094482,0.25045475363731384,0.4294382631778717
1767620500508479700,33.301479736328126,-0.5674937963485718,0.12034045159816742,-0.4746423065662384
1767620500548572700,33.34157275390625,-0.9541715383529663,-0.09040805697441101,-0.7733554244041443
1767620500588684500,33.3816845703125,-1.160033106803894,0.9254608750343323,-1.6676621437072754
1767620500628758000,33.42175805664063,-1.0812314748764038,1.6774359941482544,-2.3035728931427
1767620500668876300,33.461876220703125,-1.0903944969177246,2.0592267513275146,-2.5271494388580322
1767620500708951800,33.501951904296874,-0.6603453159332275,1.5277739763259888,-2.1264219284057617
1767620500729033200,33.522033203125,-0.33169981837272644,1.2217304706573486,-2.057394027709961
1767620500749039000,33.5420390625,-0.0861319974064827,1.3267992734909058,-1.9706512689590454
1767620500789133800,33.5821337890625,0.2278527319431305,1.927890658378601,-1.217454433441162
1767620500829222000,33.62222192382813,0.2217440903186798,1.8203784227371216,-0.607200026512146
1767620500869305300,33.66230541992188,0.01038470957428217,1.0427470207214355,-0.36163222789764404
1767620500909409500,33.70240942382812,-0.07208210229873657,0.9260717034339905,-0.21013765037059784
1767620500949507800,33.7425078125,-0.07819075137376785,0.9010262489318848,0.08246681094169617
1767620500989582600,33.78258251953125,0.27550023794174194,0.8161159753799438,0.8228355050086975
1767620501029663700,33.82266381835937,-0.08979719132184982,0.07269296050071716,0.8399397134780884
1767620501069772300,33.86277221679688,-0.6316346526145935,2.8411343097686768,1.7104226350784302
1767620501109852400,33.90285229492188,-0.33292156457901,1.6365079879760742,-0.2681698501110077
1767620501149964800,33.94296484375,0.2321287989616394,1.160033106803894,-0.7177666425704956
1767620501190037500,33.98303759765625,-0.44654250144958496,-0.04459316283464432,-0.4954117238521576
1767620501230118000,34.02311791992187,-0.3323107063770294,0.5754350423812866,-0.6798930168151855
1767620501270204700,34.06320458984375,-0.08918632566928864,0.27550023794174194,-0.6328563690185547
1767620501310290700,34.103290771484374,-0.08124507963657379,0.3744603991508484,-0.07269296050071716
1767620501350359300,34.143359375,-0.29504790902137756,1.254717230796814,0.7635815739631653
1767620501390445600,34.18344555664063,-0.31520646810531616,1.2919800281524658,1.3451253175735474
1767620501430519600,34.22351953125,-0.34574973583221436,0.6786713004112244,0.7324274182319641
1767620501470595300,34.26359521484375,-0.19364428520202637,0.4538728892803192,0.3543018400669098
1767620501510685400,34.303685546875,-0.17959438264369965,0.4660901725292206,0.19547687470912933
1767620501550779400,34.343779296875,-0.26572638750076294,0.8894197940826416,0.2877175211906433
1767620501590870500,34.38387060546875,-0.18814650177955627,0.8790351152420044,1.177748203277588
1767620501630969000,34.42396899414062,0.10567969083786011,0.6921103000640869,2.1649065017700195
1767620501671036700,34.46403662109375,0.5852088928222656,1.007927656173706,2.423302412033081
1767620501711130000,34.50413012695312,-0.05253441259264946,1.3573426008224487,1.577254056930542
1767620501751204000,34.5442041015625,-0.35735616087913513,1.006095051765442,1.1453723907470703
1767620501791279000,34.584279052734374,-0.7257078886032104,0.2583959996700287,0.5919284224510193
1767620501831354400,34.62435424804688,-1.359786033630371,-0.04703662544488907,-0.1319468915462494
1767620501871431700,34.664431640625,-1.8655824661254883,0.4349360466003418,-0.9615018963813782
1767620501911505200,34.70450512695312,-1.6963727474212646,1.5937473773956299,-1.72935950756073
1767620501951615500,34.74461547851563,-1.2638801336288452,2.295020818710327,-2.3658812046051025
1767620501991700000,34.78469995117187,-0.8411614298820496,2.241875410079956,-2.451402187347412
1767620502031779800,34.82477978515625,-0.15821409225463867,1.9620991945266724,-1.7592918872833252
1767620502071867400,34.864867431640626,0.06475171446800232,2.110539436340332,-1.4569135904312134
1767620502111963000,34.904962890625,-0.02076941914856434,1.9620991945266724,-1.06657075881958
1767620502152050000,34.9450498046875,-0.005497787147760391,1.5149458646774292,-0.8869763612747192
1767620502192125700,34.98512573242188,0.1973094791173935,1.016479730606079,0.10934487730264664
1767620502232249000,35.0252490234375,0.6426302194595337,2.7708847522735596,0.7660250067710876
1767620502272291800,35.065291748046874,-0.2767219543457031,-0.23884831368923187,1.8087719678878784
1767620502312363000,35.10536303710938,-0.485027015209198,2.6816983222961426,0.6792821288108826
1767620502352440600,35.145440673828126,0.09040805697441101,2.1429152488708496,-0.37690386176109314
1767620502392509000,35.185509033203125,0.048258353024721146,0.8387179970741272,-0.5076290369033813
1767620502432620800,35.22562084960938,-0.3787364661693573,1.2620476484298706,-0.7935139536857605
1767620502472706800,35.26570678710937,-0.29504790902137756,0.9761626720428467,-0.7586946487426758
1767620502512796400,35.30579638671875,-0.17776179313659668,0.8014551997184753,-0.6902777552604675
1767620502552872400,35.34587255859375,-0.3628539443016052,1.0848966836929321,-0.2070833146572113
1767620502592958500,35.38595849609375,-0.3585779070854187,1.2357803583145142,0.3194825351238251
1767620502633041700,35.42604174804688,-0.2626720666885376,0.9749409556388855,0.7513642311096191
1767620502673113600,35.466113525390625,-0.32009339332580566,1.32863187789917,0.5662720799446106
1767620502713187000,35.50618701171875,-0.18509216606616974,0.8246681094169617,0.7959573864936829
1767620502753272600,35.5462724609375,-0.14294247329235077,0.6670648455619812,0.5406157374382019
1767620502793349000,35.58634912109375,-0.28527405858039856,0.8032878041267395,0.7299839854240417
1767620502833433300,35.62643334960938,0.014049900695681572,0.5106833577156067,2.0091357231140137
1767620502873501000,35.6665009765625,0.2119702398777008,0.13072516024112701,2.825251817703247
1767620502913570000,35.706570068359376,0.11301007121801376,0.2669481039047241,2.090991735458374
1767620502953649200,35.746649169921874,-0.19425514340400696,0.15943582355976105,1.0690141916275024
1767620502993722600,35.78672265625,0.025656340643763542,-0.12095131725072861,0.5082398653030396
1767620503033808400,35.82680834960937,0.11789698898792267,0.6236934065818787,-0.303600013256073
1767620503073897000,35.86689697265625,-0.17531833052635193,0.23335053026676178,-0.6133087277412415
1767620503113953800,35.906953857421875,-0.4056145250797272,0.2773328125476837,-1.2272282838821411
1767620503154022400,35.9470224609375,-0.494189977645874,0.28588494658470154,-1.626123309135437
1767620503194099200,35.98709912109375,-0.48869219422340393,0.7024950385093689,-2.0305161476135254
1767620503234195000,36.02719482421875,-0.3982841372489929,0.09346238523721695,-1.742187738418579
1767620503274254800,36.0672548828125,-0.26145032048225403,-0.3830125033855438,-0.9993755221366882
1767620503294339800,36.08733984375,-0.19303341209888458,-0.07330382615327835,-0.6291912198066711
1767620503314350600,36.1073505859375,-0.1716531366109848,0.2638937830924988,-0.2718350291252136
1767620503354427600,36.147427734375,0.051312681287527084,0.43737950921058655,0.08918632566928864
1767620503374511000,36.167510986328125,0.2278527319431305,0.30970868468284607,0.10323622822761536
1767620503394500400,36.18750024414062,0.2632829248905182,0.44593164324760437,0.1918116807937622
1767620503414577200,36.2075771484375,0.10995574295520782,0.03420845419168472,1.38849675655365
1767620503434572300,36.227572265625,0.21013765037059784,1.0458012819290161,2.704911231994629
1767620503474641000,36.26764086914063,-0.6621779203414917,-2.012190103530884,3.26629638671875
1767620503514713600,36.30771362304687,-0.17409659922122955,1.6487252712249756,-0.4746423065662384
1767620503554822700,36.34782275390625,-0.20586158335208893,0.42760565876960754,-0.27611109614372253
1767620503594894000,36.38789404296875,-0.08124507963657379,0.49296826124191284,-0.8943067193031311
1767620503634969000,36.42796899414063,-0.2669481039047241,-0.12034045159816742,-1.1172724962234497
1767620503675052500,36.46805249023438,-0.251676470041275,-0.06414084881544113,-1.2052371501922607
1767620503715154200,36.508154296875,-0.08246681094169617,-0.17409659922122955,-1.0793988704681396
1767620503755241500,36.54824145507813,-0.09896016865968704,-0.08185594528913498,-0.7086036801338196
1767620503795349500,36.588349609375,-0.28527405858039856,-0.23884831368923187,-0.054367005825042725
1767620503815441700,36.608441650390624,-0.39156460762023926,-0.2919935882091522,0.17409659922122955
1767620503835432700,36.6284326171875,-0.4056145250797272,-0.3341432809829712,0.29626965522766113
1767620503875536100,36.6685361328125,-0.4105014503002167,-0.9046914577484131,0.3280346393585205
1767620503915622400,36.70862231445312,-0.42699480056762695,-0.9486737251281738,0.2981022298336029
1767620503955719700,36.7487197265625,-0.32009339332580566,-0.9969320893287659,0.10384709388017654
1767620503995831800,36.78883178710937,-0.08796459436416626,-1.5259413719177246,-0.22113321721553802
1767620504035922000,36.828921875,0.12828169763088226,-1.711033582687378,-0.34758231043815613
1767620504076010000,36.869010009765624,0.1411098688840866,-1.3445143699645996,0.09162978827953339
1767620504116099600,36.909099609375,-0.11789698898792267,-1.5821410417556763,1.8234328031539917
1767620504156182500,36.9491826171875,-0.024434609338641167,-1.5442672967910767,3.148399591445923
1767620504196294400,36.98929443359375,0.6493497490882874,-1.7776178121566772,2.7427849769592285
1767620504236373200,37.029373291015624,2.0091357231140137,-2.048841953277588,1.8674150705337524
1767620504256487700,37.04948779296875,2.56868839263916,-2.345111608505249,1.2370021343231201
1767620504276489700,37.06948974609375,2.9022207260131836,-2.8399124145507812,0.7605272531509399
1767620504316571400,37.1095712890625,2.5271494388580322,-3.116023540496826,-0.34697145223617554
1767620504356660700,37.14966064453125,2.1001546382904053,-4.002388954162598,-0.8912523984909058
1767620504396763000,37.189762939453125,1.7788395881652832,-3.9736783504486084,-1.1099421977996826
1767620504436878300,37.22987841796875,1.6377297639846802,-4.087910175323486,-1.3555099964141846
1767620504476985600,37.269985595703126,1.2583824396133423,-4.039041042327881,-1.321912407875061
1767620504517106700,37.31010668945312,0.8142833709716797,-4.292550086975098,-1.2901474237442017
1767620504557212000,37.3502119140625,0.23457226157188416,-4.441601276397705,-0.9089674949645996
1767620504597309700,37.390309814453126,0.43676865100860596,-3.1697797775268555,-0.2064724564552307
1767620504637403000,37.43040283203125,0.49846604466438293,-1.9346102476119995,0.8106181621551514
1767620504677493200,37.4704931640625,0.1569923609495163,-0.3933972120285034,-0.5345070958137512
1767620504697580000,37.490580078125,0.23518311977386475,-2.891836166381836,-0.00366519158706069
1767620504717576000,37.51057592773437,0.8216137290000916,-3.6859610080718994,0.9437867999076843
1767620504757689000,37.55068920898437,0.042760565876960754,-1.8985692262649536,-0.3084869384765625
1767620504797760800,37.5907607421875,-0.3738495409488678,-1.6536122560501099,0.18936823308467865
1767620504837836000,37.6308359375,0.33169981837272644,-1.72935950756073,-0.475253164768219
1767620504877921800,37.670921875,0.26022860407829285,-1.5851953029632568,-0.6963863968849182
1767620504918018800,37.71101879882813,0.2577851414680481,-1.3744467496871948,-0.6719517707824707
1767620504938112500,37.73111254882812,0.05192354694008827,-1.026253581047058,-0.6957755088806152
1767620504958118400,37.751118408203126,-0.1820378452539444,-0.8582656979560852,-0.6988298296928406
1767620504978207000,37.77120703125,-0.09224065393209457,-0.4538728892803192,-0.6597344875335693
1767620504998216400,37.791216552734376,-0.02382374368607998,-0.4996877610683441,-0.5797111392021179
1767620505038295600,37.83129565429687,0.005497787147760391,-0.9291260242462158,-0.53328537940979
1767620505078402800,37.87140283203125,0.0507018156349659,-0.9205739498138428,-0.5827654600143433
1767620505098496800,37.891496826171874,-0.10873401165008545,-0.941343367099762,-0.5192354321479797
1767620505118510300,37.91151025390625,-0.25045475363731384,-0.8093964457511902,-0.5253441333770752
1767620505158614800,37.95161474609375,-0.3023782968521118,-0.5345070958137512,-0.578489363193512
1767620505198707200,37.991707275390624,-0.41172316670417786,-0.47708576917648315,-0.7800748944282532
1767620505238808000,38.03180810546875,-0.6487388610839844,-0.2125810980796814,-0.8998045325279236
1767620505278903600,38.07190356445312,-0.7122688889503479,0.18325957655906677,-0.8552113175392151
1767620505318984000,38.11198388671875,-0.4893030524253845,-0.423329621553421,-0.2932153046131134
1767620505359062000,38.15206201171875,-0.646295428276062,-0.8124507665634155,0.5455026626586914
1767620505399133400,38.19213354492187,-0.17776179313659668,-0.11972958594560623,1.1655309200286865
1767620505419210000,38.2122099609375,0.10995574295520782,-0.5369505286216736,1.680490255355835
1767620505439203800,38.23220385742187,0.5803219676017761,-0.7916813492774963,2.3603832721710205
1767620505479283500,38.27228344726562,1.4300355911254883,-0.6230825781822205,3.163060188293457
1767620505519359000,38.31235888671875,1.585806131362915,-0.4105014503002167,2.899777412414551
1767620505559459800,38.3524599609375,2.1459696292877197,-1.281595230102539,2.750115394592285
1767620505599525600,38.392525634765626,2.395813465118408,-1.8289304971694946,2.676811456680298
1767620505619635000,38.41263500976562,2.4465153217315674,-2.3860397338867188,3.2180380821228027
1767620505639627500,38.43262744140625,2.4721715450286865,-2.3182334899902344,3.5185837745666504
1767620505679705900,38.47270581054688,2.4856107234954834,-2.8014280796051025,3.919922351837158
1767620505699787800,38.492787841796876,1.935831904411316,-2.350609540939331,3.4770450592041016
1767620505719828500,38.51282836914063,1.3933836221694946,-2.2296581268310547,2.9046642780303955
1767620505759888600,38.552888671875,0.8338310718536377,-2.4978280067443848,2.149634838104248
1767620505799950300,38.592950439453126,0.8704829812049866,-1.845423936843872,1.2009611129760742
1767620505840026400,38.6330263671875,0.9193521738052368,-1.2681562900543213,0.19364428520202637
1767620505880087800,38.673087890625,0.8778133392333984,-1.549154281616211,-0.18570303916931152
1767620505920156000,38.713156005859375,1.197906732559204,-1.796554684638977,-0.6249151229858398
1767620505960253700,38.75325366210937,1.2113457918167114,-0.8759807348251343,-1.254717230796814
1767620506000327000,38.793326904296876,-0.7715228199958801,-1.0983357429504395,1.292590856552124
1767620506040430000,38.83343017578125,0.8930850028991699,0.3194825351238251,-2.2595906257629395
1767620506080502300,38.87350219726562,0.3439171314239502,0.7440338730812073,-1.797776460647583
1767620506120573700,38.91357373046875,0.13500121235847473,0.9608910083770752,-1.8038851022720337
1767620506160639500,38.95363940429687,0.04337143152952194,1.718363881111145,-2.5705208778381348
1767620506200724000,38.993723876953126,-0.22846360504627228,1.0757336616516113,-2.579684019088745
1767620506240818700,39.03381860351563,-0.6633996367454529,0.35124751925468445,-2.5705208778381348
1767620506280905700,39.07390576171875,-0.5119050741195679,-0.11484266817569733,-2.596177339553833
1767620506321006300,39.11400634765625,-0.3017674386501312,-0.003054326167330146,-2.604118585586548
1767620506361086700,39.154086669921874,-0.2590068578720093,0.7550294399261475,-2.397646188735962
1767620506401170000,39.194169921875,-0.46670106053352356,0.5870414972305298,-1.796554684638977
1767620506441250800,39.23425073242188,-0.28527405858039856,-0.12889257073402405,-1.2107349634170532
1767620506481348000,39.27434814453125,-0.22479841113090515,0.09468411654233932,-0.9382890462875366
1767620506521441000,39.31444091796875,0.05375614017248154,-0.23518311977386475,-0.4648684561252594
1767620506561538000,39.3545380859375,-0.04214970022439957,-0.12339477986097336,-0.3170390725135803
1767620506601636600,39.39463671875,-0.2736676335334778,0.0910189226269722,-0.4294382631778717
1767620506641718300,39.43471826171875,-0.1313360333442688,-0.8155050873756409,-0.7031059265136719
1767620506681800200,39.47480029296875,0.15943582355976105,-0.6505714654922485,-0.4440990388393402
1767620506721866000,39.514865966796876,0.1765400618314743,-0.79840087890625,0.47830748558044434
1767620506761958100,39.554958251953124,0.14355333149433136,-0.8765916228294373,1.2705997228622437
1767620506802021400,39.595021484375,0,-1.0482447147369385,2.8075366020202637
1767620506842121700,39.635121826171876,0.20525072515010834,-0.6426302194595337,3.2809572219848633
1767620506882189600,39.675189453125,1.0219775438308716,-2.2149972915649414,3.1190779209136963
1767620506922302200,39.71530224609375,1.9578231573104858,-2.378709316253662,2.3267858028411865
1767620506962369500,39.75536962890625,2.4776694774627686,-4.715879917144775,2.136195659637451
1767620507002465800,39.7954658203125,2.7427849769592285,-5.327966690063477,2.4190263748168945
1767620507042543900,39.8355439453125,2.7452285289764404,-5.112331390380859,2.8344147205352783
1767620507062623500,39.85562353515625,2.4587326049804688,-4.342030048370361,2.842355966567993
1767620507082614500,39.87561450195312,1.7238616943359375,-3.9180896282196045,2.872288465499878
1767620507122677500,39.91567749023437,1.3976596593856812,-2.9352076053619385,2.461786985397339
1767620507162779400,39.955779296875,1.5418238639831543,-2.158186912536621,1.5632041692733765
1767620507202847000,39.995846923828125,1.433700680732727,-1.6994271278381348,0.5962044596672058
1767620507242950400,40.035950439453124,1.2932016849517822,-1.6102408170700073,0.00427605677396059
1767620507263031600,40.056031494140626,1.2919800281524658,-1.4135421514511108,-0.4031710624694824
1767620507283029800,40.07602978515625,1.3255776166915894,-1.2247848510742188,-0.7232644557952881
1767620507323106800,40.11610693359375,1.5204435586929321,-1.2522737979888916,-0.9877691268920898
1767620507363184400,40.156184326171875,1.3176363706588745,-0.24007004499435425,0.2125810980796814
1767620507403268600,40.1962685546875,0.7324274182319641,-0.33475416898727417,-1.2034045457839966
1767620507443341000,40.23634106445313,0.5057964324951172,0.4715879559516907,-1.0464121103286743
1767620507483409400,40.27640942382813,0.0659734457731247,0.5992587804794312,-1.2705997228622437
1767620507503482400,40.296482421875,0.1111774742603302,0.9462302923202515,-1.6591099500656128
1767620507523474000,40.316473876953125,0.0659734457731247,1.3066407442092896,-1.7751743793487549
1767620507563541200,40.35654125976563,-0.19975294172763824,0.8045095205307007,-1.8661932945251465
1767620507603615500,40.39661547851563,-0.18387043476104736,0.2223549485206604,-2.0922133922576904
1767620507643713800,40.4367138671875,-0.5057964324951172,-0.5607742667198181,-2.037846565246582
1767620507683788500,40.47678857421875,-0.4001167416572571,-0.99876469373703,-1.9834794998168945
1767620507723870000,40.51686987304687,-0.12339477986097336,-0.8210029006004333,-1.822821855545044
1767620507763963600,40.556963623046876,-0.03848451003432274,-0.8448266386985779,-1.4941763877868652
1767620507804061200,40.597061279296874,-0.15515977144241333,-0.45875978469848633,-1.32863187789917
1767620507844157400,40.63715747070312,-0.09712757170200348,-0.5247332453727722,-1.1050552129745483
1767620507884260400,40.67726025390625,-0.05742133408784866,-0.7605272531509399,-0.9443976879119873
1767620507924341200,40.71734130859375,-0.16737708449363708,-0.7195992469787598,-0.8362745046615601
1767620507964434200,40.75743408203125,-0.16798794269561768,-0.4178318381309509,-0.750142514705658
1767620508004537000,40.797537109375,-0.13500121235847473,-0.1111774742603302,-0.7678576111793518
1767620508044624400,40.83762426757813,-0.1362229436635971,-0.14538592100143433,-0.6511823534965515
1767620508084688600,40.87768872070313,-0.00855211354792118,-0.29077184200286865,-0.17837265133857727
1767620508124761300,40.91776123046875,-0.07147123664617538,-0.4288274049758911,0.8106181621551514
1767620508164840000,40.95783984375,0.24068090319633484,-0.8454375267028809,1.3151928186416626
1767620508204914000,40.99791381835937,0.3677408695220947,-0.36224308609962463,2.563190460205078
1767620508244979700,41.037979736328126,1.1154398918151855,-0.31581732630729675,3.2950072288513184
1767620508285086000,41.0780859375,1.4288138151168823,-1.0042624473571777,2.459343433380127
1767620508325156600,41.11815649414063,1.703092336654663,-1.5161675214767456,2.506990909576416
1767620508365236000,41.15823608398438,1.703092336654663,-2.646268129348755,2.687807083129883
1767620508405312300,41.19831225585938,1.7318029403686523,-2.5857925415039062,2.9016098976135254
1767620508445418000,41.23841796875,1.0073168277740479,-2.4770586490631104,2.737898111343384
1767620508485492500,41.27849243164062,0.22479841113090515,-1.872912883758545,1.996307611465454
1767620508525552000,41.31855224609375,0.07147123664617538,-1.6114624738693237,1.3518447875976562
1767620508565615000,41.35861499023437,0.18936823308467865,-0.9419541954994202,0.3842342495918274
1767620508605679900,41.39867993164062,0.24373523890972137,-0.5112941861152649,-0.6805039048194885
1767620508645747500,41.43874755859375,0.28588494658470154,0.08002334833145142,-0.846659243106842
1767620508685814500,41.478814453125,0.20952677726745605,0.3378084897994995,0.1062905490398407
1767620508725888300,41.51888818359375,0.028099801391363144,0.1215621829032898,-1.6389514207839966
1767620508765963000,41.558962890625,-0.03726277872920036,1.1087204217910767,-1.9443840980529785
1767620508806027800,41.59902783203125,-0.2932153046131134,0.769079327583313,-1.9578231573104858
1767620508846100500,41.6391005859375,-0.5082398653030396,1.8002198934555054,-2.5192081928253174
1767620508886173200,41.67917309570313,-0.46181413531303406,1.3964380025863647,-2.4868323802948
1767620508926249700,41.71924975585937,-0.23518311977386475,0.14233160018920898,-2.462397813796997
1767620508966322400,41.759322509765624,-0.19058994948863983,0.578489363193512,-2.6737570762634277
1767620509006414800,41.79941479492187,-0.4917465150356293,0.048258353024721146,-2.337170362472534
1767620509046481200,41.83948120117188,-0.14049901068210602,0.22479841113090515,-1.560760736465454
1767620509086575600,41.87957568359375,-0.28588494658470154,0.4502076804637909,-1.014647126197815
1767620509126674400,41.91967431640625,-0.21930062770843506,0.9486737251281738,-0.6200281977653503
1767620509166753000,41.9597529296875,-0.31642818450927734,0.5210680365562439,-0.44654250144958496
1767620509206848800,41.99984887695312,-0.27611109614372253,-0.024434609338641167,-0.5326744914054871
1767620509246953500,42.039953369140626,-0.036041051149368286,-0.2883284091949463,-0.7757988572120667
1767620509287051300,42.08005126953125,0.17898350954055786,-0.3793473243713379,-0.5448917746543884
1767620509327160800,42.120160888671876,-0.22113321721553802,-0.3072652220726013,0.26450464129447937
1767620509367235800,42.16023583984375,-0.05742133408784866,-0.5167919993400574,1.2027937173843384
1767620509387349200,42.18034936523438,-0.2028072625398636,-0.626747727394104,1.8295414447784424
1767620509407344000,42.20034423828125,-0.2125810980796814,-0.6310238242149353,2.3805418014526367
1767620509447417900,42.24041796875,0.2064724564552307,-0.5699372887611389,3.302948474884033
1767620509487489300,42.2804892578125,1.0610729455947876,0.7721336483955383,3.0909781455993652
1767620509527560000,42.32055981445313,1.3182471990585327,0.14477506279945374,1.8820757865905762
1767620509567663600,42.36066357421875,1.3029755353927612,-2.4947736263275146,2.536923408508301
1767620509607732700,42.40073266601563,0.9578366875648499,-2.794708490371704,2.7684412002563477
1767620509647805200,42.44080517578125,0.46242499351501465,-1.6084082126617432,2.847242832183838
1767620509667883300,42.46088330078125,0.2620611786842346,-1.4477506875991821,2.687807083129883
1767620509687883500,42.48088354492187,0.1313360333442688,-1.3946053981781006,2.3793201446533203
1767620509727987500,42.520987548828124,-0.10812314599752426,-0.9902125597000122,1.5192219018936157
1767620509768060200,42.56106005859375,-0.031154127791523933,-0.6401867866516113,0.7177666425704956
1767620509788133000,42.581133056640624,0.13439035415649414,-0.37262779474258423,0.12889257073402405
1767620509808129500,42.60112963867188,0.22968533635139465,-0.08918632566928864,-0.47830748558044434
1767620509848193300,42.641193359375,0.2376265823841095,0.20463985204696655,-0.6579018831253052
1767620509868272600,42.661272705078126,0.1973094791173935,0.6352998614311218,-0.14416420459747314
1767620509888266200,42.681266357421876,-0.1258382350206375,0.24617868661880493,-0.6438519954681396
1767620509928340700,42.7213408203125,-0.31093040108680725,0.3897320330142975,-1.416596531867981
1767620509968448500,42.76144848632813,-0.09407325088977814,1.690264105796814,-2.1930062770843506
1767620510008526800,42.80152685546875,-0.35124751925468445,1.3377948999404907,-2.2815816402435303
1767620510048608500,42.8416083984375,-0.3604104816913605,1.6994271278381348,-2.5277602672576904
1767620510088691700,42.88169165039063,-0.46853363513946533,1.3335188627243042,-2.4330763816833496
1767620510108787000,42.90178686523438,-0.43737950921058655,0.6609562039375305,-2.3707680702209473
1767620510128803000,42.92180297851562,-0.3585779070854187,0.48258355259895325,-2.2821924686431885
1767620510168903700,42.961903564453124,-0.34513887763023376,1.0128145217895508,-2.4868323802948
1767620510208985900,43.00198583984375,-0.4392121136188507,0.22846360504627228,-1.9724838733673096
1767620510249074200,43.04207421875,-0.3225368559360504,0.17837265133857727,-1.5448782444000244
1767620510289186000,43.08218603515625,-0.31154128909111023,0.5455026626586914,-1.0586295127868652
1767620510329300200,43.12230029296875,-0.42699480056762695,0.7611380815505981,-0.5760459303855896
1767620510369392000,43.16239208984375,-0.4349360466003418,0.22968533635139465,-0.34025195240974426
1767620510409486600,43.20248657226563,-0.1814269721508026,-0.43676865100860596,-0.5681046843528748
1767620510449593000,43.24259301757812,-0.03298672288656235,-0.6994407176971436,-0.6340781450271606
1767620510489689300,43.282689453125,0.00366519158706069,-0.0659734457731247,-0.24190263450145721
1767620510529800400,43.32280053710937,-0.006719517521560192,-0.4807509481906891,0.79840087890625
1767620510569869000,43.362869140625,-0.012828170321881771,-0.8875871896743774,1.7348573207855225
1767620510609947000,43.40294677734375,0.20097467303276062,-0.3286454975605011,2.9095511436462402
1767620510650020400,43.443020263671876,0.7922922372817993,0.8827002644538879,3.3689217567443848
1767620510690124500,43.48312451171875,1.1148290634155273,0.6249151229858398,2.2736403942108154
1767620510730191000,43.52319116210938,1.5045610666275024,-2.1282544136047363,2.789210796356201
1767620510770271000,43.56327099609375,1.398881435394287,-2.285857677459717,2.676811456680298
1767620510810337300,43.603337158203125,0.6872233748435974,-1.7739527225494385,2.7317893505096436
1767620510850431000,43.64343090820312,0.004886921960860491,-1.6145168542861938,2.1087067127227783
1767620510870507300,43.66350732421875,-0.02626720629632473,-1.3353514671325684,1.643227458000183
1767620510890506200,43.68350634765625,0.051312681287527084,-1.0586295127868652,1.357953429222107
1767620510930615000,43.723614990234374,0.18936823308467865,-0.10567969083786011,0.9077457785606384
1767620510970685200,43.76368530273437,0.21013765037059784,-0.06230825558304787,0.05925392732024193
1767620511010795500,43.80379541015625,0.2626720666885376,-0.1765400618314743,-0.8326093554496765
1767620511050876400,43.84387646484375,0.251676470041275,0.2669481039047241,-0.8967501521110535
1767620511090948000,43.88394799804688,-0.11239920556545258,0.1258382350206375,-0.6872233748435974
1767620511131020300,43.92402026367188,-0.27611109614372253,0.33475416898727417,-1.6322319507598877
1767620511171091500,43.964091552734374,0.05192354694008827,1.5234979391098022,-2.057394027709961
1767620511211165000,44.0041650390625,-0.06291911751031876,1.2754865884780884,-2.2577579021453857
1767620511231249200,44.02424926757813,-0.19853121042251587,1.5497651100158691,-2.4098634719848633
1767620511251253800,44.04425366210938,-0.3897320330142975,1.6945401430130005,-2.4080307483673096
1767620511291329800,44.08432983398438,-0.7855727076530457,1.1001683473587036,-2.009746551513672
1767620511311421200,44.104421142578126,-0.7202101349830627,0.9260717034339905,-1.9449949264526367
1767620511331426800,44.1244267578125,-0.5760459303855896,1.0555751323699951,-2.0176877975463867
1767620511351517700,44.144517578125,-0.42210787534713745,1.187522053718567,-2.180788993835449
1767620511371530200,44.1645302734375,-0.4147774875164032,1.0018190145492554,-2.194838762283325
1767620511411635000,44.204635009765624,-0.5277875661849976,0.46853363513946533,-1.7666223049163818
1767620511451707100,44.24470703125,-0.7531968355178833,0.7709119319915771,-1.5210545063018799
1767620511471784000,44.26478393554687,-0.6414085030555725,0.740368664264679,-1.4257594347000122
1767620511491796700,44.284796630859375,-0.44226643443107605,0.9657779335975647,-1.2693779468536377
1767620511531902200,44.324902099609375,-0.3543018400669098,1.024420976638794,-0.9138544201850891
1767620511572010000,44.365010009765626,-0.3384193480014801,0.252287358045578,-0.6261368989944458
1767620511612120300,44.40512036132812,0.006108652334660292,-0.09957103431224823,-0.3738495409488678
1767620511652215300,44.44521533203125,0.12950342893600464,0.31642818450927734,-0.31581732630729675
1767620511692294000,44.4852939453125,-0.1618792861700058,0.2021963894367218,0.02871066704392433
1767620511732408000,44.525407958984374,0.02382374368607998,-0.2382374405860901,0.7195992469787598
1767620511752491000,44.545490966796876,0.00733038317412138,-0.2174680233001709,1.0965031385421753
1767620511772488000,44.565488037109375,-0.05192354694008827,-0.40744712948799133,1.6206254959106445
1767620511812606200,44.605606201171874,0.4550946056842804,-0.6829473376274109,2.9248228073120117
1767620511852692700,44.64569262695313,1.2705997228622437,1.1582005023956299,2.328007459640503
1767620511892800300,44.68580029296875,1.1301007270812988,-0.6395758986473083,1.9437731504440308
1767620511932878000,44.72587817382812,1.187522053718567,-1.8558086156845093,2.6670377254486084
1767620511972972000,44.765971923828126,1.086118459701538,-1.740355134010315,2.559525489807129
1767620512013060900,44.806060791015625,0.6224716901779175,-1.976149082183838,2.747061014175415
1767620512053131800,44.8461318359375,0.34208452701568604,-1.9785925149917603,2.691472291946411
1767620512093209900,44.8862099609375,-0.2687807083129883,-1.5485434532165527,2.101987361907959
1767620512133287400,44.926287353515626,-0.23029619455337524,-1.1649199724197388,1.4764612913131714
1767620512173366300,44.9663662109375,-0.0708603709936142,-0.403781920671463,0.618195652961731
1767620512213475000,45.00647509765625,0.13805554807186127,-0.1563815027475357,-0.475253164768219
1767620512253555500,45.04655541992187,0.2278527319431305,0.2773328125476837,-1.1905763149261475
1767620512293661200,45.0866611328125,0.18875735998153687,0.9456194043159485,0.05803219974040985
1767620512333749500,45.12674951171875,0.09285151958465576,0.19364428520202637,-1.6957619190216064
1767620512373824800,45.16682470703125,-0.16982053220272064,1.2589932680130005,-2.1893410682678223
1767620512413902600,45.206902587890625,-0.15393804013729095,0.9535606503486633,-2.3023509979248047
1767620512453986800,45.24698681640625,-0.0910189226269722,1.6291775703430176,-2.5332581996917725
1767620512494064600,45.28706469726563,-0.45814892649650574,1.5076154470443726,-2.507601737976074
1767620512534157800,45.32715771484375,-0.5357288122177124,0.5693264007568359,-2.328618288040161
1767620512574245000,45.3672451171875,-0.3933972120285034,0.9779952764511108,-2.353663682937622
1767620512614352400,45.40735229492188,-0.5210680365562439,0.9871582388877869,-1.9566013813018799
